accx,accy,accz,gyrox,gyroy,gyroz,magx,magy,magz,imu_time,fix_type,pdop,num_svs,latitude,longitude,altitude,course_deg,speed,time_of_day,roll,pitch,yaw,baro_pressure_mbar,baro_temp_c,mag_x_cal,mag_y_cal,mag_z_cal
5.0658393,-5.744049,-6.140485,-0.053229168,0.020781636,-0.0102083385,377.0,89.0,147.0,3034173400.0,NoFix,12,0,0.0,0.0,0,0.0,0.0,0,43.2256,31.373102,143.87181,970.6429,27.713783,-487.33368,39.317913,341.75165
5.0829163,-5.7550273,-6.133166,-0.018229166,0.0032817125,0.0072916597,382.0,90.0,150.0,3035485000.0,NoFix,12,0,0.0,0.0,0,0.0,0.0,0,43.224934,31.37092,143.86543,970.6429,27.713783,-496.437,41.368004,347.38818
5.0890155,-5.694647,-6.1368256,-0.000729166,-0.01421833,-0.027708344,383.0,93.0,150.0,3036796200.0,NoFix,12,0,0.0,0.0,0,0.0,0.0,0,43.221138,31.370377,143.86163,970.6429,27.713783,-498.3618,47.01449,347.3826
5.1256094,-5.726362,-6.129507,0.051770836,-0.031718373,-0.0102083385,374.0,97.0,146.0,3038107600.0,NoFix,12,0,0.0,0.0,0,0.0,0.0,0,43.220222,31.370634,143.85938,970.64294,27.715195,-482.15787,54.177574,339.90955
5.1170707,-5.7147737,-6.0892534,0.016770834,-0.01421833,-0.027708344,375.0,97.0,155.0,3039419100.0,NoFix,12,0,0.0,0.0,0,0.0,0.0,0,43.21989,31.372034,143.8373,970.64294,27.715195,-483.86475,54.233406,356.99033
5.1750116,-5.6995263,-6.076445,0.016770834,-0.01421833,0.0072916597,385.0,89.0,151.0,3040730600.0,NoFix,12,0,0.0,0.0,0,0.0,0.0,0,43.219692,31.376299,143.83203,970.64294,27.715195,-501.85403,39.603077,349.24692
5.1304884,-5.684279,-6.1215777,-0.000729166,0.020781636,-0.0102083385,378.0,90.0,146.0,3042041900.0,NoFix,12,0,0.0,0.0,0,0.0,0.0,0,43.216557,31.378468,143.82791,970.64294,27.715195,-489.20227,41.220673,339.842
5.0829163,-5.7538075,-6.129507,-0.018229166,0.020781636,0.0072916597,382.0,95.0,150.0,3043353300.0,NoFix,12,0,0.0,0.0,0,0.0,0.0,0,43.21621,31.37657,143.82802,970.64294,27.715195,-496.6093,50.721386,347.40005
5.0755973,-5.707455,-6.074616,-0.000729166,0.0032817125,0.0072916597,378.0,89.0,151.0,3044664800.0,NoFix,12,0,0.0,0.0,0,0.0,0.0,0,43.21632,31.376183,143.81274,970.64667,27.715195,-489.1042,39.36187,349.33603
5.074378,-5.727582,-6.1069403,-0.018229166,0.0032817125,0.059791654,376.0,90.0,149.0,3045976000.0,NoFix,12,0,0.0,0.0,0,0.0,0.0,0,43.216053,31.373974,143.80093,970.64667,27.715195,-485.5213,41.158882,345.5653
5.0451026,-5.7257524,-6.114869,-0.018229166,-0.01421833,0.0072916597,381.0,95.0,149.0,3047287600.0,NoFix,12,0,0.0,0.0,0,0.0,0.0,0,43.21475,31.370687,143.80132,970.64667,27.715195,-494.80063,50.684555,345.51355
5.0664487,-5.731851,-6.139265,-0.000729166,0.0032817125,-0.0102083385,381.0,97.0,151.0,3048599000.0,NoFix,12,0,0.0,0.0,0,0.0,0.0,0,43.212997,31.368298,143.79884,970.64667,27.715195,-494.8441,54.430656,349.31683
5.1176805,-5.6983066,-6.1136494,-0.018229166,0.0032817125,0.024791658,381.0,90.0,147.0,3049910500.0,NoFix,12,0,0.0,0.0,0,0.0,0.0,0,43.210773,31.369123,143.79817,970.6478,27.72593,-494.65378,41.326424,341.7031
5.12378,-5.7147737,-6.1063304,-0.018229166,-0.01421833,0.0072916597,385.0,93.0,150.0,3051221800.0,NoFix,12,0,0.0,0.0,0,0.0,0.0,0,43.209393,31.370047,143.7999,970.6478,27.72593,-502.0046,47.083405,347.35715
5.1067023,-5.705015,-6.1057205,0.034270834,-0.031718373,-0.0102083385,377.0,90.0,152.0,3052533200.0,NoFix,12,0,0.0,0.0,0,0.0,0.0,0,43.208298,31.370329,143.7806,970.6478,27.72593,-487.3045,41.200466,351.25043
5.135368,-5.7098947,-6.1014514,-0.018229166,-0.01421833,-0.0102083385,380.0,91.0,147.0,3053844700.0,NoFix,12,0,0.0,0.0,0,0.0,0.0,0,43.206776,31.37222,143.7795,970.6478,27.72593,-492.86685,43.162643,341.7182
5.111582,-5.6976967,-6.0947423,-0.018229166,0.03828168,-0.027708344,375.0,95.0,147.0,3055156000.0,NoFix,12,0,0.0,0.0,0,0.0,0.0,0,43.205254,31.374294,143.77576,970.6478,27.72593,-483.89764,50.473057,341.79135
5.1500053,-5.73856,-6.1234074,-0.018229166,0.03828168,-0.0102083385,388.0,97.0,148.0,3056467500.0,NoFix,12,0,0.0,0.0,0,0.0,0.0,0,43.204556,31.376535,143.79218,970.6478,27.72593,-507.6321,54.664738,343.5299
5.0829163,-5.708675,-6.1191387,-0.000729166,0.0032817125,-0.027708344,378.0,93.0,151.0,3057779000.0,NoFix,12,0,0.0,0.0,0,0.0,0.0,0,43.20255,31.375988,143.78021,970.6482,27.72593,-489.24203,46.844578,349.34552
5.096944,-5.6995263,-6.1301165,-0.018229166,-0.031718373,-0.0102083385,385.0,93.0,152.0,3059090400.0,NoFix,12,0,0.0,0.0,0,0.0,0.0,0,43.19917,31.375349,143.77599,970.6482,27.72593,-501.97916,47.088158,351.15573
5.073158,-5.727582,-6.147194,-0.018229166,-0.031718373,-0.027708344,371.0,94.0,151.0,3060401700.0,NoFix,4,0,0.0,0.0,0,0.0,0.0,0,43.196243,31.372894,143.75346,970.6482,27.72593,-476.52664,48.474045,349.43698
5.0896254,-5.6824493,-6.1020613,0.034270834,0.0032817125,-0.027708344,381.0,88.0,146.0,3061713200.0,NoFix,4,0,0.0,0.0,0,0.0,0.0,0,43.194492,31.373585,143.75241,970.6482,27.72593,-494.5976,37.582695,339.79907
5.0859656,-5.7062354,-6.157562,-0.000729166,0.0032817125,0.0072916597,382.0,91.0,148.0,3063024600.0,NoFix,4,0,0.0,0.0,0,0.0,0.0,0,43.191048,31.371983,143.7515,970.6482,27.72593,-496.49695,43.233932,343.592
5.092065,-5.7178235,-6.113039,-0.000729166,-0.01421833,0.042291656,383.0,89.0,148.0,3064336000.0,NoFix,4,0,0.0,0.0,0,0.0,0.0,0,43.19033,31.370708,143.75148,970.64703,27.715195,-498.2494,39.527035,343.57452
5.076207,-5.7227025,-6.1203585,0.016770834,-0.01421833,0.024791658,378.0,93.0,145.0,3065647400.0,NoFix,4,0,0.0,0.0,0,0.0,0.0,0,43.1897,31.368664,143.75537,970.64703,27.715195,-489.3184,46.830326,337.94983
5.140247,-5.73856,-6.1057205,-0.018229166,0.03828168,-0.027708344,377.0,97.0,147.0,3066958800.0,NoFix,4,0,0.0,0.0,0,0.0,0.0,0,43.1898,31.371094,143.7583,970.64703,27.715195,-487.60934,54.283325,341.77063
5.1006036,-5.7172136,-6.0855937,0.0,0.037917137,-0.0072916597,378.0,92.0,154.0,3068270000.0,NoFix,4,0,0.0,0.0,0,0.0,0.0,0,43.190304,31.372198,143.74046,970.64703,27.715195,-489.1694,44.981026,355.041
5.090845,-5.7214828,-6.099012,0.016041666,0.037552595,0.02697917,377.0,87.0,145.0,3069581600.0,NoFix,4,0,0.0,0.0,0,0.0,0.0,0,43.19099,31.372007,143.73726,970.64703,27.715195,-487.29022,35.57181,337.9483
5.096334,-5.705015,-6.0807147,-0.017135417,0.018958807,-0.009479158,379.0,90.0,153.0,3070893000.0,NoFix,4,0,0.0,0.0,0,0.0,0.0,0,43.190624,31.373007,143.72083,970.6489,27.715195,-490.9346,41.271755,353.1242
5.079867,-5.7153835,-6.1246276,0.0175,-0.015676618,-0.007656239,377.0,92.0,147.0,3072204500.0,NoFix,4,0,0.0,0.0,0,0.0,0.0,0,43.189194,31.371584,143.71666,970.6489,27.715195,-487.43707,44.929943,341.75876
5.082602,-5.699414,-6.118139,-0.017864583,-0.031718373,0.011302091,385.0,89.0,143.0,3073515800.0,NoFix,4,0,0.0,0.0,0,0.0,0.0,0,43.186657,31.37028,143.73013,970.6489,27.715195,-501.95584,39.584076,334.05267
5.0930033,-5.7561417,-6.1035585,-0.000364583,-0.030624628,-0.0051041543,380.0,91.0,153.0,3074827300.0,NoFix,4,0,0.0,0.0,0,0.0,0.0,0,43.187695,31.368877,143.71652,970.6489,27.715195,-492.7905,43.17689,353.11386
5.087965,-5.716492,-6.092024,0.0175,-0.013853788,-0.0043749884,380.0,84.0,148.0,3076138800.0,NoFix,4,0,0.0,0.0,0,0.0,0.0,0,43.18783,31.368517,143.70659,970.6489,27.715195,-492.6129,30.070282,343.60083
5.078916,-5.7116466,-6.0950646,0.016770834,-0.030624628,0.030260421,386.0,94.0,145.0,3077450000.0,NoFix,4,0,0.0,0.0,0,0.0,0.0,0,43.18776,31.367079,143.72406,970.64954,27.720848,-503.9241,48.976665,337.85037
5.0818005,-5.7036138,-6.133396,-0.0175,0.021875381,-0.005468741,379.0,93.0,151.0,3078761500.0,NoFix,4,0,0.0,0.0,0,0.0,0.0,0,43.185047,31.366335,143.71474,970.64954,27.720848,-491.06345,46.879036,349.3328
5.085862,-5.7083354,-6.094256,-0.015677083,-0.030624628,-0.0065624937,383.0,88.0,150.0,3080073000.0,NoFix,4,0,0.0,0.0,0,0.0,0.0,0,43.183952,31.365812,143.70857,970.64954,27.720848,-498.18948,37.66111,347.37073
5.0999603,-5.7156625,-6.140558,0.0029166676,0.0043754578,-0.0065624937,374.0,91.0,149.0,3081384400.0,NoFix,4,0,0.0,0.0,0,0.0,0.0,0,43.181767,31.365324,143.69398,970.64954,27.720848,-481.91296,42.960644,345.59314
5.0868297,-5.7530856,-6.1157775,0.020416668,0.021146178,0.010572918,385.0,96.0,147.0,3082695700.0,NoFix,4,0,0.0,0.0,0,0.0,0.0,0,43.183113,31.364012,143.70894,970.64954,27.720848,-502.14615,52.688313,341.66644
5.1122217,-5.7296867,-6.1295457,0.0032812506,0.021146178,0.02734375,390.0,85.0,151.0,3084007200.0,NoFix,4,0,0.0,0.0,0,0.0,0.0,0,43.18252,31.363865,143.70857,970.64954,27.720848,-510.82324,32.292664,349.1738
5.099858,-5.7259107,-6.0496044,-0.0134895835,-0.013124585,0.044114582,374.0,98.0,146.0,3085318700.0,NoFix,4,0,0.0,0.0,0,0.0,0.0,0,43.184902,31.36422,143.71243,970.64954,27.720848,-482.19232,56.04825,339.9119
5.087265,-5.71761,-6.102279,0.02078125,0.0043754578,0.060520828,374.0,89.0,145.0,3086630000.0,NoFix,4,0,0.0,0.0,0,0.0,0.0,0,43.185417,31.363031,143.70714,970.64954,27.720848,-481.89493,39.20979,337.99124
5.104355,-5.7243395,-6.078529,0.0371875,0.055781722,0.0076562464,371.0,97.0,148.0,3087941400.0,NoFix,4,0,0.0,0.0,0,0.0,0.0,0,43.187588,31.364445,143.69975,970.64954,27.720848,-476.66818,54.07895,343.74628
5.0715194,-5.7347975,-6.092041,0.0021874998,0.0029171705,-0.009114586,380.0,90.0,149.0,3089252900.0,NoFix,4,0,0.0,0.0,0,0.0,0.0,0,43.188404,31.363274,143.69495,970.64954,27.720848,-492.80692,41.296715,345.51437
5.072657,-5.6908126,-6.0980396,0.0021874998,-0.01421833,-0.026614591,372.0,91.0,147.0,3090564400.0,NoFix,4,0,0.0,0.0,0,0.0,0.0,0,43.18656,31.36291,143.68187,970.65,27.725372,-478.2956,42.88698,341.82004
5.0757885,-5.728094,-6.1139903,-0.014947917,0.037187934,-0.043385424,377.0,87.0,144.0,3091875600.0,NoFix,4,0,0.0,0.0,0,0.0,0.0,0,43.18575,31.362553,143.68037,970.65,27.725372,-487.30295,35.56944,336.04904
5.0851192,-5.685018,-6.116653,0.0018229168,0.0032817125,-0.009114586,378.0,97.0,148.0,3093187000.0,NoFix,4,0,0.0,0.0,0,0.0,0.0,0,43.1831,31.36252,143.68143,970.65,27.725372,-489.41803,54.320156,343.65717
5.0609636,-5.6944227,-6.1321735,0.0014583338,-0.01421833,0.008020826,380.0,96.0,144.0,3094498600.0,NoFix,4,0,0.0,0.0,0,0.0,0.0,0,43.180225,31.360352,143.6939,970.65,27.725372,-493.0773,52.508896,336.03223
5.1260486,-5.75644,-6.0929747,-0.016041666,0.0025525093,-0.026250012,377.0,90.0,146.0,3095809800.0,NoFix,7,0,0.0,0.0,0,0.0,0.0,0,43.18159,31.361588,143.69197,970.65,27.725372,-487.38086,41.186214,339.85474
5.1083255,-5.746028,-6.1032877,-0.016770832,0.0029170513,-0.025885426,379.0,95.0,150.0,3097121300.0,NoFix,7,0,0.0,0.0,0,0.0,0.0,0,43.18199,31.36196,143.68884,970.65045,27.725372,-491.14508,50.61801,347.43826
5.1311145,-5.699342,-6.1053925,0.00036458485,-0.03135383,-0.008020833,379.0,94.0,151.0,3098432800.0,NoFix,7,0,0.0,0.0,0,0.0,0.0,0,43.18027,31.363575,143.68079,970.65045,27.725372,-491.0979,48.74971,349.33517
5.1553173,-5.6832857,-6.113099,0.00036458485,0.054687977,0.008749999,381.0,91.0,145.0,3099744300.0,NoFix,7,0,0.0,0.0,0,0.0,0.0,0,43.178295,31.367464,143.68759,970.65045,27.725372,-494.7137,43.19235,337.9069
5.10937,-5.7135925,-6.0928326,-0.0328125,0.035729647,-0.008749999,379.0,98.0,146.0,3101055500.0,NoFix,7,0,0.0,0.0,0,0.0,0.0,0,43.177746,31.368923,143.69798,970.65045,27.725372,-491.29935,56.22054,339.84827
5.0960093,-5.7051163,-6.103261,-0.03171875,0.051771402,0.008020833,378.0,95.0,147.0,3102367000.0,NoFix,7,0,0.0,0.0,0,0.0,0.0,0,43.17663,31.369692,143.70074,970.65045,27.725372,-489.36185,50.57643,341.75317
5.0753145,-5.7393007,-6.1124496,-0.030624999,-0.0010931492,0.025156245,385.0,94.0,147.0,3103678500.0,NoFix,7,0,0.0,0.0,0,0.0,0.0,0,43.17648,31.367632,143.71288,970.65045,27.725372,-502.07724,48.946957,341.66168
5.090526,-5.738045,-6.1044855,-0.029895833,-0.017863989,0.024427079,382.0,95.0,146.0,3104989700.0,NoFix,7,0,0.0,0.0,0,0.0,0.0,0,43.17652,31.36629,143.72398,970.65045,27.725372,-496.66022,50.711887,339.80295
5.094584,-5.709227,-6.0988665,0.03901042,-0.034270287,0.0069270805,384.0,96.0,143.0,3106301200.0,NoFix,7,0,0.0,0.0,0,0.0,0.0,0,43.176453,31.365831,143.74515,970.65045,27.725372,-500.37564,52.64435,334.08203
5.0926676,-5.7297845,-6.137052,0.0040104166,-0.016406178,0.024062492,385.0,88.0,148.0,3107612700.0,NoFix,7,0,0.0,0.0,0,0.0,0.0,0,43.17529,31.36411,143.74658,970.65045,27.725372,-501.85776,37.725277,343.5467
5.0951433,-5.7347035,-6.07186,0.02078125,0.0010938644,-0.0094791725,383.0,93.0,152.0,3108924200.0,NoFix,7,0,0.0,0.0,0,0.0,0.0,0,43.17746,31.36448,143.74274,970.65045,27.725372,-498.33633,47.01924,351.18118
5.0899405,-5.7239733,-6.120853,0.020052085,0.017864585,-0.026250012,380.0,95.0,143.0,3110235400.0,NoFix,7,0,0.0,0.0,0,0.0,0.0,0,43.176876,31.364223,143.75677,970.6504,27.7248,-493.05557,50.635845,334.13058
5.0982704,-5.712233,-6.0658565,0.03682292,0.017500043,-0.008750007,376.0,91.0,144.0,3111547000.0,NoFix,7,0,0.0,0.0,0,0.0,0.0,0,43.17869,31.365538,143.75874,970.6504,27.7248,-485.61942,43.017685,336.07126
5.0955925,-5.7485456,-6.1143456,0.0014583357,0.0171355,0.009114578,385.0,89.0,147.0,3112858400.0,NoFix,7,0,0.0,0.0,0,0.0,0.0,0,43.179493,31.36472,143.76471,970.6504,27.7248,-501.90494,39.59358,341.6498
5.095456,-5.7404666,-6.119669,-0.016041664,-0.0007289648,-0.008020833,379.0,93.0,149.0,3114169600.0,NoFix,7,0,0.0,0.0,0,0.0,0.0,0,43.17906,31.363926,143.76071,970.6504,27.7248,-491.0889,46.874287,345.53424
5.0782156,-5.7262516,-6.127998,-0.032083333,0.015677214,-0.025156252,381.0,92.0,149.0,3115481000.0,NoFix,7,0,0.0,0.0,0,0.0,0.0,0,43.177254,31.362871,143.75809,970.6504,27.7248,-494.69727,45.072525,345.5064
5.102296,-5.691233,-6.0954413,0.0025520865,-0.053593516,0.026614584,387.0,94.0,143.0,3116792600.0,NoFix,7,0,0.0,0.0,0,0.0,0.0,0,43.175785,31.362728,143.7804,970.6472,27.7248,-505.77097,49.00637,334.0391
5.0952044,-5.700557,-6.1553335,0.0021875035,-0.017499804,0.00838542,378.0,90.0,150.0,3118104000.0,NoFix,7,0,0.0,0.0,0,0.0,0.0,0,43.17225,31.361532,143.76718,970.6472,27.7248,-489.15137,41.23017,347.43912
5.11633,-5.7241683,-6.100333,-0.032447916,-0.01640606,-0.009114578,383.0,93.0,147.0,3119415300.0,NoFix,7,0,0.0,0.0,0,0.0,0.0,0,43.171516,31.362291,143.77377,970.6472,27.7248,-498.39996,47.007366,341.68478
5.0885916,-5.7274847,-6.1347184,0.036822923,-0.0331769,0.007656254,382.0,91.0,145.0,3120726800.0,NoFix,7,0,0.0,0.0,0,0.0,0.0,0,43.170753,31.360483,143.78055,970.6472,27.7248,-496.53513,43.226807,337.89417
5.068749,-5.7180414,-6.0893273,0.07000001,-0.0331769,0.024427086,378.0,89.0,144.0,3122038300.0,NoFix,7,0,0.0,0.0,0,0.0,0.0,0,43.172337,31.35866,143.7824,970.64655,27.71859,-489.19327,39.345245,336.04108
5.0928187,-5.7299547,-6.079922,0.016770838,0.0010939837,0.006197922,380.0,92.0,151.0,3123349500.0,NoFix,7,0,0.0,0.0,0,0.0,0.0,0,43.174015,31.358694,143.77492,970.64655,27.71859,-492.8504,45.042816,349.3177
5.113816,-5.7295713,-6.081954,3.7252903e-9,0.06963563,0.005468756,377.0,87.0,151.0,3124661000.0,NoFix,7,0,0.0,0.0,0,0.0,0.0,0,43.17577,31.360641,143.75832,970.64655,27.71859,-487.21387,35.586063,349.344
5.120593,-5.715628,-6.1033764,0.01713542,0.03390646,0.022604167,372.0,91.0,153.0,3125972500.0,NoFix,7,0,0.0,0.0,0,0.0,0.0,0,43.176083,31.362,143.73233,970.64655,27.71859,-478.21924,42.901226,353.2157
5.108396,-5.7064786,-6.104591,-0.00036457926,-0.0014580488,0.040104166,378.0,93.0,147.0,3127283700.0,NoFix,7,0,0.0,0.0,0,0.0,0.0,0,43.175426,31.36221,143.7322,970.64655,27.71859,-489.29294,46.83508,341.7484
5.1142673,-5.7452445,-6.093958,3.7252903e-9,0.015312672,0.005468756,385.0,91.0,149.0,3128595200.0,NoFix,7,0,0.0,0.0,0,0.0,0.0,0,43.17696,31.362827,143.73645,970.64655,27.71859,-501.94843,43.339684,345.45312
5.0746326,-5.727634,-6.0763893,-0.017499996,-0.01859355,-0.029531248,381.0,99.0,144.0,3129906700.0,NoFix,9,0,0.0,0.0,0,0.0,0.0,0,43.177505,31.362259,143.7551,970.6478,27.71859,-495.0021,58.155384,336.02664
5.0726504,-5.7219734,-6.121933,3.7252903e-9,-0.034635305,0.0051041692,381.0,88.0,149.0,3131218200.0,NoFix,9,0,0.0,0.0,0,0.0,0.0,0,43.17625,31.36008,143.7478,970.6478,27.71859,-494.55942,37.58982,345.49692
5.1187134,-5.707036,-6.123435,0.0003645867,0.018229246,0.005468756,381.0,87.0,151.0,3132529400.0,NoFix,9,0,0.0,0.0,0,0.0,0.0,0,43.174667,31.361118,143.73529,970.6478,27.71859,-494.4995,35.723892,349.2931
5.112418,-5.683648,-6.1097846,3.7252903e-9,0.0010938644,0.0051041692,376.0,96.0,149.0,3133841000.0,NoFix,9,0,0.0,0.0,0,0.0,0.0,0,43.172443,31.362356,143.72952,970.6478,27.71859,-485.72806,52.38294,345.57956
5.106615,-5.744866,-6.113673,0.0003645867,-0.03354168,0.021875001,380.0,94.0,146.0,3135152400.0,NoFix,9,0,0.0,0.0,0,0.0,0.0,0,43.172844,31.3613,143.73601,970.6478,27.71859,-492.98294,48.772293,339.82605
5.069461,-5.744292,-6.0850596,0.01713542,-0.016406178,0.021510415,375.0,96.0,152.0,3136463600.0,NoFix,9,0,0.0,0.0,0,0.0,0.0,0,43.174965,31.35936,143.72343,970.6486,27.725647,-483.86847,52.355606,351.29013
5.0898495,-5.7311864,-6.0927005,0.033906255,-0.03390622,0.0036458299,386.0,93.0,149.0,3137775000.0,NoFix,9,0,0.0,0.0,0,0.0,0.0,0,43.176105,31.358479,143.73045,970.6486,27.725647,-503.83875,47.115494,345.44516
5.1090145,-5.7167807,-6.12399,-0.00072916225,0.052135587,-0.030989587,378.0,99.0,152.0,3139086600.0,NoFix,9,0,0.0,0.0,0,0.0,0.0,0,43.1749,31.359808,143.72478,970.6486,27.725647,-489.43607,58.07101,351.25906
5.1090946,-5.743617,-6.11726,-0.00036457926,0.05031264,-0.029895835,375.0,100.0,146.0,3140398000.0,NoFix,9,0,0.0,0.0,0,0.0,0.0,0,43.17528,31.360695,143.73125,970.6486,27.725647,-484.08267,59.82406,339.90393
5.1364784,-5.704557,-6.0909967,-0.01786458,0.049583435,0.0047395825,378.0,90.0,148.0,3141709300.0,NoFix,9,0,0.0,0.0,0,0.0,0.0,0,43.174927,31.363743,143.72578,970.6486,27.725647,-489.17682,41.22542,343.64056
5.119184,-5.7128367,-6.091336,-0.00072916225,-0.0036457777,0.004374996,378.0,90.0,148.0,3143020800.0,NoFix,9,0,0.0,0.0,0,0.0,0.0,0,43.17486,31.36504,143.71974,970.64417,27.725647,-489.17682,41.22542,343.64056
5.107108,-5.6703653,-6.069644,-0.034999996,0.013489604,-0.030260421,388.0,90.0,145.0,3144332300.0,NoFix,9,0,0.0,0.0,0,0.0,0.0,0,43.172916,31.367752,143.73457,970.64417,27.725647,-507.42908,41.562878,337.81543
5.080877,-5.692972,-6.0916877,0.0003645867,-0.0036457777,0.0047395825,379.0,92.0,150.0,3145643500.0,NoFix,9,0,0.0,0.0,0,0.0,0.0,0,43.17193,31.367567,143.72702,970.64417,27.725647,-491.04172,45.00598,347.43112
5.1135097,-5.708572,-6.104873,0.0003645867,0.030989647,-0.01203125,377.0,88.0,148.0,3146955000.0,NoFix,9,0,0.0,0.0,0,0.0,0.0,0,43.171227,31.36904,143.71703,970.64417,27.725647,-487.2865,37.44961,343.64853
5.1040225,-5.718554,-6.1050744,-0.03427083,-0.0043748617,-0.010937497,378.0,92.0,145.0,3148266500.0,NoFix,9,0,0.0,0.0,0,0.0,0.0,0,43.170067,31.369343,143.72005,970.64417,27.725647,-489.28394,44.95965,337.94745
5.0869923,-5.6783614,-6.1343856,-0.03317708,0.01276052,-0.026614584,387.0,98.0,146.0,3149578000.0,NoFix,9,0,0.0,0.0,0,0.0,0.0,0,43.16573,31.36946,143.73952,970.64294,27.71463,-505.8706,56.4962,339.74646
5.0835733,-5.7187915,-6.1558847,0.0025520865,-0.02078116,0.00838542,389.0,89.0,148.0,3150889200.0,NoFix,9,0,0.0,0.0,0,0.0,0.0,0,43.1631,31.367226,143.74693,970.64294,27.71463,-509.17786,39.733784,343.49817
5.069647,-5.7213364,-6.091989,-0.03171875,-0.020416617,-0.009114578,377.0,82.0,145.0,3152200700.0,NoFix,9,0,0.0,0.0,0,0.0,0.0,0,43.16268,31.365887,143.73709,970.64294,27.71463,-487.11795,26.218431,337.93643
5.1351705,-5.738663,-6.0465055,0.0032812525,-0.0032811165,0.007656254,380.0,88.0,145.0,3153512200.0,NoFix,9,0,0.0,0.0,0,0.0,0.0,0,43.16606,31.368315,143.74055,970.64294,27.71463,-492.7889,37.54586,337.9125
5.121942,-5.70229,-6.072324,0.020052087,-0.019687414,0.006562501,377.0,92.0,149.0,3154823400.0,NoFix,9,0,0.0,0.0,0,0.0,0.0,0,43.16672,31.370064,143.73274,970.642,27.71463,-487.41162,44.934692,345.5573
5.125992,-5.7459383,-6.055607,0.019687504,0.032083392,-0.028072916,385.0,90.0,152.0,3156135000.0,NoFix,9,0,0.0,0.0,0,0.0,0.0,0,43.1703,31.372635,143.72955,970.642,27.71463,-501.87576,41.476128,351.1486
5.1067634,-5.7412987,-6.0954447,0.0021875035,0.013854146,0.006927088,381.0,90.0,145.0,3157446400.0,NoFix,9,0,0.0,0.0,0,0.0,0.0,0,43.17166,31.372799,143.73595,970.642,27.71463,-494.67923,41.32167,337.9045
5.1133814,-5.726036,-6.0533953,0.0018229205,0.030624986,0.023333333,383.0,88.0,147.0,3158758000.0,NoFix,9,0,0.0,0.0,0,0.0,0.0,0,43.17443,31.374502,143.73936,970.642,27.71463,-498.22766,37.653988,341.6729
5.0597095,-5.715722,-6.0857954,0.018593755,-0.021510482,0.0051041692,377.0,93.0,150.0,3160069000.0,NoFix,9,0,0.0,0.0,0,0.0,0.0,0,43.174973,31.37266,143.73015,970.642,27.71463,-487.43335,46.807743,347.45895
5.0728984,-5.70823,-6.0893073,0.0010937545,-0.021875024,-0.012395829,380.0,98.0,149.0,3161380600.0,NoFix,9,0,0.0,0.0,0,0.0,0.0,0,43.174526,31.371761,143.73335,970.642,27.71463,-493.08258,56.262123,345.5334
5.102698,-5.709436,-6.057014,0.0010937545,-0.020416737,-0.04630208,389.0,84.0,145.0,3162692000.0,NoFix,9,0,0.0,0.0,0,0.0,0.0,0,43.175293,31.37342,143.74298,970.642,27.714912,-509.04376,30.373278,337.78845
5.0666866,-5.739278,-6.111245,0.00036458857,-0.019322991,-0.028437495,387.0,95.0,149.0,3164003300.0,NoFix,11,0,0.0,0.0,0,0.0,0.0,0,43.175217,31.371395,143.75298,970.642,27.714912,-505.72906,50.891304,345.43716
5.0672965,-5.721594,-6.133807,-0.0003645774,0.06781244,-0.02770833,379.0,90.0,151.0,3165314800.0,NoFix,11,0,0.0,0.0,0,0.0,0.0,0,43.173965,31.370476,143.74089,970.642,27.714912,-490.96005,41.267006,349.32565
5.0868096,-5.695983,-6.089293,-0.0010937434,-0.0021874905,-0.009479158,385.0,94.0,150.0,3166626300.0,NoFix,11,0,0.0,0.0,0,0.0,0.0,0,43.17308,31.370743,143.7445,970.642,27.714912,-502.03906,48.95408,347.3595
5.0831513,-5.7008615,-6.1100254,-0.0018229093,-0.0025520325,0.008385427,381.0,90.0,148.0,3167937800.0,NoFix,11,0,0.0,0.0,0,0.0,0.0,0,43.17163,31.370047,143.74214,970.642,27.714912,-494.64105,41.328796,343.60236
5.0831513,-5.7197647,-6.1246605,-0.0010937434,-0.03755212,-0.008749984,386.0,96.0,148.0,3169249000.0,NoFix,11,0,0.0,0.0,0,0.0,0.0,0,43.170044,31.368423,143.75354,970.642,27.714912,-503.95483,52.72514,343.55298
5.130104,-5.6935434,-6.12527,-0.0010937527,-0.037187338,-0.008020833,368.0,91.0,145.0,3170560500.0,NoFix,11,0,0.0,0.0,0,0.0,0.0,0,43.16722,31.36955,143.73788,970.642,27.714912,-471.03543,42.744392,338.07236
5.098727,-5.7237954,-6.0976167,-0.017864587,0.03208351,-0.008020833,383.0,97.0,147.0,3171872000.0,NoFix,11,0,0.0,0.0,0,0.0,0.0,0,43.167316,31.370129,143.75034,970.642,27.714912,-498.53778,54.49007,341.69427
5.1182346,-5.725617,-6.1012673,-0.01713542,-0.036822796,0.008749999,379.0,96.0,146.0,3173183200.0,NoFix,11,0,0.0,0.0,0,0.0,0.0,0,43.16694,31.370329,143.75706,970.642,27.714912,-491.23044,52.479187,339.8435
5.098881,-5.7434053,-6.1043887,0.0010937452,-0.01859355,0.008385412,380.0,95.0,143.0,3174494700.0,NoFix,11,0,0.0,0.0,0,0.0,0.0,0,43.167774,31.369455,143.7719,970.64185,27.712936,-493.05557,50.635845,334.13058
5.1224184,-5.709058,-6.0786037,-0.016041672,0.0506773,-0.008749999,382.0,94.0,151.0,3175806200.0,NoFix,11,0,0.0,0.0,0,0.0,0.0,0,43.168175,31.372108,143.76979,970.64185,27.712936,-496.56213,48.853085,349.297
5.0766354,-5.729206,-6.068299,-0.033177093,0.049583554,-0.025885418,382.0,101.0,148.0,3177117700.0,NoFix,11,0,0.0,0.0,0,0.0,0.0,0,43.169544,31.3726,143.7837,970.64185,27.712936,-496.84152,61.940693,343.61575
5.062667,-5.731103,-6.134238,-0.016041672,-0.0025519133,0.00838542,381.0,94.0,150.0,3178429000.0,NoFix,11,0,0.0,0.0,0,0.0,0.0,0,43.16824,31.369814,143.78105,970.64185,27.712936,-494.75345,48.81625,347.41043
5.0730352,-5.7396407,-6.151924,-0.015677089,0.013489723,0.025885418,381.0,89.0,148.0,3179740400.0,NoFix,11,0,0.0,0.0,0,0.0,0.0,0,43.16683,31.36699,143.7778,970.64185,27.712936,-494.6066,39.45812,343.6
5.0886807,-5.70708,-6.1205654,0.0018229112,0.02989602,0.00838542,379.0,95.0,155.0,3181052000.0,NoFix,11,0,0.0,0.0,0,0.0,0.0,0,43.16562,31.36672,143.76163,970.64185,27.712936,-491.08145,50.629887,356.9347
5.088071,-5.700981,-6.163866,-0.016041672,0.011666775,0.008020833,376.0,92.0,155.0,3182363100.0,NoFix,11,0,0.0,0.0,0,0.0,0.0,0,43.161682,31.365355,143.73608,970.6428,27.712936,-485.5139,44.914482,356.96573
5.0947795,-5.7424517,-6.0870233,0.019322911,-0.023697734,0.008020833,374.0,96.0,151.0,3183674600.0,NoFix,11,0,0.0,0.0,0,0.0,0.0,0,43.163597,31.364647,143.72397,970.6428,27.712936,-482.05978,52.31877,349.40356
5.0831923,-5.755869,-6.0973907,0.020416662,-0.024062276,-0.008749999,377.0,95.0,153.0,3184986000.0,NoFix,11,0,0.0,0.0,0,0.0,0.0,0,43.165543,31.363123,143.71062,970.6428,27.712936,-487.46408,50.55622,353.16156
5.1423483,-5.7082996,-6.1425204,0.03755208,0.010573149,-0.025520839,376.0,100.0,149.0,3186297300.0,NoFix,11,0,0.0,0.0,0,0.0,0.0,0,43.16365,31.365108,143.70941,970.6428,27.712936,-485.8659,59.865643,345.58905
5.1283216,-5.70708,-6.10105,0.036822915,-0.0054684877,0.009479165,377.0,88.0,152.0,3187608800.0,NoFix,11,0,0.0,0.0,0,0.0,0.0,0,43.163727,31.366638,143.69014,970.6428,27.712936,-487.2356,37.459114,351.24567
5.0990486,-5.7333035,-6.070557,0.002187496,0.012395978,-0.024427086,378.0,91.0,152.0,3188920300.0,NoFix,11,0,0.0,0.0,0,0.0,0.0,0,43.165604,31.36758,143.67694,970.6428,27.712936,-489.1604,43.105602,351.24005
5.0764832,-5.7046404,-6.096781,0.019322913,-0.05651021,0.045572914,379.0,88.0,150.0,3190231800.0,NoFix,11,0,0.0,0.0,0,0.0,0.0,0,43.1653,31.365566,143.66556,970.6428,27.712936,-490.90387,37.523277,347.42163
5.0783134,-5.6857347,-6.093732,0.0018229131,-0.02078104,0.02770833,382.0,95.0,151.0,3191543000.0,NoFix,11,0,0.0,0.0,0,0.0,0.0,0,43.16403,31.364841,143.66428,970.6428,27.712936,-496.5966,50.723763,349.29935
5.0972185,-5.7302547,-6.117516,0.0014583301,0.013489723,0.026614577,379.0,90.0,145.0,3192854500.0,NoFix,11,0,0.0,0.0,0,0.0,0.0,0,43.164085,31.364132,143.66798,970.6428,27.712936,-491.0364,41.252754,337.92996
5.0459905,-5.6936626,-6.10349,-0.015677087,0.012395978,-0.008020833,377.0,91.0,148.0,3194166000.0,NoFix,11,0,0.0,0.0,0,0.0,0.0,0,43.162395,31.36243,143.6615,970.6428,27.712936,-487.3899,43.06164,343.65564
5.0923395,-5.70647,-6.0992208,-0.015312504,-0.039010286,-0.0076562464,379.0,93.0,147.0,3195477200.0,NoFix,11,0,0.0,0.0,0,0.0,0.0,0,43.161133,31.362082,143.66249,970.64276,27.71209,-491.11435,46.869537,341.7357
5.0935597,-5.7101293,-6.1187363,0.019322913,-0.021145701,0.009843752,382.0,95.0,147.0,3196788700.0,NoFix,11,0,0.0,0.0,0,0.0,0.0,0,43.160126,31.361324,143.67055,970.64276,27.71209,-496.6475,50.714264,341.70224
5.0630665,-5.7357435,-6.0687275,0.01895833,0.02989602,0.06161458,383.0,87.0,148.0,3198100200.0,NoFix,12,0,0.0,0.0,0,0.0,0.0,0,43.163418,31.3597,143.67186,970.64276,27.71209,-498.18048,35.785683,343.5698
5.0905104,-5.7217164,-6.0833645,0.01895833,0.028802276,0.0094791725,382.0,97.0,144.0,3199411700.0,NoFix,12,0,0.0,0.0,0,0.0,0.0,0,43.164917,31.360046,143.6913,970.64276,27.71209,-496.75458,54.44849,336.00916
5.109416,-5.7479405,-6.10044,0.019322913,0.0102084875,-0.024791665,380.0,81.0,146.0,3200723000.0,NoFix,12,0,0.0,0.0,0,0.0,0.0,0,43.16644,31.360586,143.68379,970.64276,27.71209,-492.53497,24.453503,339.79517
5.0850215,-5.7211065,-6.10166,-0.015312504,-0.006197691,-0.0076562464,381.0,95.0,144.0,3202034400.0,NoFix,12,0,0.0,0.0,0,0.0,0.0,0,43.16598,31.36002,143.69792,970.6409,27.71209,-494.86426,50.67268,336.01715
5.0734344,-5.70708,-6.0931215,-0.03208334,0.012031436,0.026249997,382.0,90.0,144.0,3203346000.0,NoFix,12,0,0.0,0.0,0,0.0,0.0,0,43.16535,31.359179,143.70807,970.6409,27.71209,-496.51337,41.353756,335.99252
5.0447707,-5.7381825,-6.128494,0.002552079,-0.038645625,0.008749999,388.0,94.0,147.0,3204657200.0,NoFix,12,0,0.0,0.0,0,0.0,0.0,0,43.16473,31.355137,143.72342,970.6409,27.71209,-507.54147,49.050335,341.6235
5.0459905,-5.6893935,-6.0583596,-0.014947921,0.013854384,-0.026250005,377.0,101.0,148.0,3205968600.0,NoFix,12,0,0.0,0.0,0,0.0,0.0,0,43.164722,31.354828,143.72897,970.6409,27.71209,-487.73447,61.768402,343.6794
5.108806,-5.7082996,-6.127884,-0.014947921,0.030625343,0.008749999,384.0,92.0,152.0,3207280000.0,NoFix,12,0,0.0,0.0,0,0.0,0.0,0,43.162945,31.35545,143.72469,970.6409,27.71209,-500.1233,45.18302,351.16608
5.0899005,-5.723546,-6.106539,0.002552079,0.012760758,-0.008385412,378.0,93.0,138.0,3208591600.0,NoFix,12,0,0.0,0.0,0,0.0,0.0,0,43.162895,31.355276,143.74626,970.64087,27.711525,-489.4075,46.8137,324.65488
5.105147,-5.701591,-6.1364217,0.002552079,-0.004009962,-0.008385412,374.0,90.0,144.0,3209902800.0,NoFix,12,0,0.0,0.0,0,0.0,0.0,0,43.160347,31.355402,143.74208,970.64087,27.711525,-481.9421,41.07809,336.09436
5.1203933,-5.7259855,-6.0955615,-0.015312504,-0.021145463,-0.008385412,380.0,94.0,148.0,3211214300.0,NoFix,12,0,0.0,0.0,0,0.0,0.0,0,43.160328,31.35641,143.7435,970.64087,27.711525,-492.9575,48.777042,343.6246
5.0966086,-5.732694,-6.105929,0.0014583301,-0.02041626,0.00838542,378.0,93.0,149.0,3212525800.0,NoFix,12,0,0.0,0.0,0,0.0,0.0,0,43.160633,31.355713,143.7385,970.64087,27.711525,-489.2675,46.83983,345.54697
5.0947795,-5.715618,-6.10349,0.0014583301,0.030990005,-0.025885418,383.0,88.0,148.0,3213837000.0,NoFix,12,0,0.0,0.0,0,0.0,0.0,0,43.16034,31.356482,143.73761,970.64087,27.711525,-498.21494,37.65636,343.57217
5.0862412,-5.7259855,-6.1138573,-0.016406253,0.02989626,-0.025520831,378.0,92.0,149.0,3215148500.0,NoFix,12,0,0.0,0.0,0,0.0,0.0,0,43.159756,31.356407,143.7314,970.6404,27.711525,-489.23303,44.96915,345.5446
5.090662,-5.746517,-6.1046453,0.018229164,-0.022239208,-0.007656239,381.0,91.0,154.0,3216460000.0,NoFix,12,0,0.0,0.0,0,0.0,0.0,0,43.160946,31.355349,143.71718,970.6404,27.711525,-494.59918,43.213726,355.00043
5.107096,-5.7531085,-6.143522,0.0010937471,-0.022239208,0.009843759,380.0,84.0,145.0,3217771500.0,NoFix,12,0,0.0,0.0,0,0.0,0.0,0,43.160526,31.35392,143.71428,970.6404,27.711525,-492.6511,30.063158,337.90298
5.121634,-5.715782,-6.113508,-0.015677087,0.09880257,-0.042291656,380.0,91.0,147.0,3219082800.0,NoFix,12,0,0.0,0.0,0,0.0,0.0,0,43.15987,31.356918,143.71547,970.6404,27.711525,-492.86685,43.162643,341.7182
5.0860066,-5.6899586,-6.1200457,0.0018229131,0.028437972,-0.024062492,373.0,90.0,148.0,3220394200.0,NoFix,12,0,0.0,0.0,0,0.0,0.0,0,43.157623,31.357359,143.70073,970.6404,27.711525,-480.0698,41.05313,343.7042
5.1100082,-5.7364826,-6.1159053,0.01895833,0.011302471,-0.0058333203,382.0,85.0,146.0,3221705700.0,NoFix,12,0,0.0,0.0,0,0.0,0.0,0,43.158157,31.35763,143.70023,970.6399,27.706718,-496.31564,32.005123,339.7792
5.1004653,-5.7043233,-6.1276336,-0.015312504,-0.0065619946,-0.02260416,388.0,90.0,145.0,3223017000.0,NoFix,12,0,0.0,0.0,0,0.0,0.0,0,43.155685,31.3578,143.71478,970.6399,27.706718,-507.42908,41.562878,337.81543
5.0917616,-5.685841,-6.124387,0.002187496,-0.0069265366,0.029166676,384.0,95.0,147.0,3224328400.0,NoFix,12,0,0.0,0.0,0,0.0,0.0,0,43.15327,31.357315,143.7252,970.6399,27.706718,-500.29028,50.783176,341.6768
5.079357,-5.724645,-6.0960827,0.002187496,-0.0072910786,0.010572925,381.0,97.0,147.0,3225640000.0,NoFix,12,0,0.0,0.0,0,0.0,0.0,0,43.15383,31.3563,143.73479,970.6399,27.706718,-494.895,54.421158,341.71973
5.1062474,-5.717997,-6.0937076,-0.014947921,-0.059061885,-0.024427079,386.0,95.0,149.0,3226951400.0,NoFix,12,0,0.0,0.0,0,0.0,0.0,0,43.153145,31.356495,143.74309,970.6399,27.706718,-503.90765,50.856842,345.4499
5.1009173,-5.7212253,-6.0865784,0.002552079,-0.03937447,-0.024427079,381.0,91.0,142.0,3228262700.0,NoFix,12,0,0.0,0.0,0,0.0,0.0,0,43.153442,31.356815,143.7563,970.6353,27.706718,-494.7519,43.185223,332.20905
5.106086,-5.728794,-6.0929046,0.019687496,-0.038645267,-0.006927073,386.0,93.0,143.0,3229574400.0,NoFix,12,0,0.0,0.0,0,0.0,0.0,0,43.154274,31.356861,143.77693,970.6353,27.706718,-503.9151,47.101242,334.04947
5.113656,-5.7131457,-6.1278486,-0.014947921,-0.020780683,-0.023697913,387.0,90.0,150.0,3230885600.0,NoFix,12,0,0.0,0.0,0,0.0,0.0,0,43.15213,31.35729,143.77786,970.6353,27.706718,-505.54404,41.54029,347.32455
5.1222744,-5.7101865,-6.0913534,0.002552079,-0.038280725,-0.006197907,384.0,96.0,150.0,3232196900.0,NoFix,5,0,0.0,0.0,0,0.0,0.0,0,43.15184,31.358503,143.7821,970.6353,27.706718,-500.28656,52.660973,347.37698
5.0883164,-5.700036,-6.128179,0.019687502,-0.004009962,0.01093749,381.0,92.0,149.0,3233508400.0,NoFix,5,0,0.0,0.0,0,0.0,0.0,0,43.150177,31.357756,143.7792,970.6353,27.706718,-494.69727,45.072525,345.5064
5.046814,-5.754283,-6.118386,0.0018229187,-0.0032807589,-0.0065625086,380.0,89.0,145.0,3234819800.0,NoFix,5,0,0.0,0.0,0,0.0,0.0,0,43.151062,31.354412,143.78212,970.6359,27.712364,-492.82336,39.416534,337.9149
5.084476,-5.749842,-6.1304007,-0.015677081,0.03026092,-0.023333348,382.0,96.0,146.0,3236131300.0,NoFix,5,0,0.0,0.0,0,0.0,0.0,0,43.15098,31.353422,143.79373,970.6359,27.712364,-496.69467,52.58256,339.80533
5.077229,-5.7023535,-6.153053,-0.015312498,0.012031674,-0.005468756,375.0,88.0,142.0,3237442600.0,NoFix,5,0,0.0,0.0,0,0.0,0.0,0,43.14764,31.352057,143.79312,970.6359,27.712364,-483.72006,37.366444,332.2783
5.1035857,-5.693352,-6.0916123,-0.03244792,-0.004374504,-0.022604175,381.0,86.0,147.0,3238754000.0,NoFix,5,0,0.0,0.0,0,0.0,0.0,0,43.146046,31.353441,143.78822,970.6359,27.712364,-494.51596,33.84372,341.6936
5.114646,-5.7189875,-6.122695,0.018958334,-0.02041626,0.011666663,377.0,96.0,146.0,3240065500.0,NoFix,5,0,0.0,0.0,0,0.0,0.0,0,43.14546,31.353504,143.79152,970.6359,27.712364,-487.58762,52.41027,339.869
5.0787373,-5.667302,-6.0802126,0.0014583338,-0.0029162169,0.011666663,380.0,94.0,143.0,3241376800.0,NoFix,5,0,0.0,0.0,0,0.0,0.0,0,43.144093,31.354023,143.80411,970.63416,27.712364,-493.02112,48.765167,334.1282
5.0876875,-5.733637,-6.0861945,-0.01640625,-0.0025516748,0.01203125,372.0,91.0,151.0,3242688300.0,NoFix,5,0,0.0,0.0,0,0.0,0.0,0,43.14532,31.353521,143.78296,970.63416,27.712364,-478.2447,42.896477,349.41714
5.0839047,-5.7231283,-6.129963,0.0010937508,-0.0018224716,-0.005104162,375.0,90.0,151.0,3243999700.0,NoFix,5,0,0.0,0.0,0,0.0,0.0,0,43.14428,31.352364,143.76422,970.63416,27.712364,-483.67444,41.129173,349.3766
5.087073,-5.723872,-6.128276,0.00072916783,-0.018593311,0.012395836,375.0,95.0,152.0,3245311200.0,NoFix,5,0,0.0,0.0,0,0.0,0.0,0,43.14336,31.350914,143.7489,970.63416,27.712364,-483.834,50.484932,351.28775
5.0892205,-5.705319,-6.082908,0.052500002,-0.0014578104,-0.004739575,382.0,92.0,150.0,3246622500.0,NoFix,5,0,0.0,0.0,0,0.0,0.0,0,43.144554,31.35137,143.74657,970.63416,27.712364,-496.50595,45.109356,347.39294
5.0923524,-5.726151,-6.1092362,0.00036458485,0.03244841,-0.039010413,384.0,88.0,148.0,3247934000.0,NoFix,5,0,0.0,0.0,0,0.0,0.0,0,43.14454,31.35192,143.7472,970.63354,27.706436,-500.03635,37.690815,343.55945
5.1039734,-5.740826,-6.1434345,0.035364583,-0.019322395,0.012760423,382.0,93.0,151.0,3249245400.0,NoFix,5,0,0.0,0.0,0,0.0,0.0,0,43.1444,31.350618,143.74315,970.63354,27.706436,-496.52768,46.98241,349.29462
5.08849,-5.71868,-6.072513,0.018229168,0.015313029,-0.0043749884,384.0,95.0,150.0,3250556700.0,NoFix,5,0,0.0,0.0,0,0.0,0.0,0,43.14618,31.351236,143.74815,970.63354,27.706436,-500.2521,50.7903,347.3746
5.0683837,-5.726029,-6.1042666,0.017864585,0.015313029,-0.004739575,379.0,99.0,154.0,3251868200.0,NoFix,5,0,0.0,0.0,0,0.0,0.0,0,43.146862,31.350075,143.73993,970.63354,27.706436,-491.23203,58.110218,355.0449
5.1040044,-5.71036,-6.127611,0.017864585,0.048125625,-0.0036458224,377.0,95.0,150.0,3253179600.0,NoFix,5,0,0.0,0.0,0,0.0,0.0,0,43.14602,31.350874,143.73329,970.634,27.706436,-487.50226,50.549095,347.4637
5.1145053,-5.7110453,-6.1130075,-0.016770832,0.012396336,0.0142187625,383.0,88.0,151.0,3254491000.0,NoFix,5,0,0.0,0.0,0,0.0,0.0,0,43.145084,31.351738,143.72575,970.634,27.706436,-498.17676,37.663486,349.27002
5.0952697,-5.716242,-6.0938277,-0.01640625,-0.004739046,0.03171876,385.0,89.0,143.0,3255802600.0,NoFix,5,0,0.0,0.0,0,0.0,0.0,0,43.145267,31.351517,143.74142,970.634,27.706436,-501.95584,39.584076,334.05267
5.1075425,-5.72784,-6.101116,0.00072916783,-0.004374504,-0.0032812357,386.0,93.0,143.0,3257113900.0,NoFix,5,0,0.0,0.0,0,0.0,0.0,0,43.14571,31.35196,143.76268,970.634,27.706436,-503.9151,47.101242,334.04947
5.120808,-5.6916842,-6.113132,0.00036458485,-0.022239089,0.030989595,375.0,86.0,149.0,3258425300.0,NoFix,5,0,0.0,0.0,0,0.0,0.0,0,43.14404,31.352793,143.74435,970.634,27.706436,-483.56207,33.64172,345.5685
5.1041317,-5.695181,-6.067256,-0.01640625,0.012031674,-0.003645815,383.0,91.0,147.0,3259736600.0,NoFix,5,0,0.0,0.0,0,0.0,0.0,0,43.144238,31.354658,143.74974,970.634,27.706436,-498.33105,43.266018,341.68002
5.0993648,-5.7434177,-6.1056976,-0.015677083,0.029531717,-0.002187483,377.0,83.0,147.0,3261048000.0,NoFix,5,0,0.0,0.0,0,0.0,0.0,0,43.145195,31.35472,143.73772,970.63403,27.707,-487.12695,28.093857,341.7374
5.0783043,-5.746101,-6.1187253,0.019322917,-0.004739046,0.015312515,378.0,90.0,146.0,3262359600.0,NoFix,5,0,0.0,0.0,0,0.0,0.0,0,43.14624,31.352758,143.737,970.63403,27.707,-489.20227,41.220673,339.842
5.0840893,-5.7000833,-6.123351,0.0021874998,-0.05578077,0.03171876,381.0,91.0,149.0,3263670800.0,NoFix,5,0,0.0,0.0,0,0.0,0.0,0,43.144276,31.350977,143.73315,970.63403,27.707,-494.6628,43.20185,345.50403
5.1205106,-5.701112,-6.1164365,0.018958334,-0.02041626,0.030989595,375.0,95.0,147.0,3264982300.0,NoFix,5,0,0.0,0.0,0,0.0,0.0,0,43.14328,31.351578,143.73029,970.63403,27.707,-483.89764,50.473057,341.79135
5.101527,-5.720541,-6.068774,0.035,0.031719208,0.048125006,379.0,86.0,149.0,3266293800.0,NoFix,8,0,0.0,0.0,0,0.0,0.0,0,43.14622,31.352394,143.7213,970.63403,27.707,-490.8477,33.779552,345.5176
5.082977,-5.713012,-6.0685887,0.017135417,-0.004009962,0.01312501,381.0,90.0,144.0,3267605200.0,NoFix,8,0,0.0,0.0,0,0.0,0.0,0,43.14786,31.352425,143.73026,970.6336,27.707,-494.69196,41.319298,336.00525
5.0901875,-5.7018394,-6.1152987,-0.017864583,0.030625463,-0.039010406,378.0,93.0,142.0,3268916500.0,NoFix,8,0,0.0,0.0,0,0.0,0.0,0,43.14603,31.353203,143.74136,970.6336,27.707,-489.35657,46.8232,332.25198
5.067113,-5.7312226,-6.1257854,-0.017864583,0.013489962,-0.020781241,378.0,91.0,142.0,3270228000.0,NoFix,8,0,0.0,0.0,0,0.0,0.0,0,43.145164,31.351591,143.75047,970.6336,27.707,-489.28766,43.08185,332.24722
5.0832586,-5.708374,-6.083444,-0.034635417,0.047760844,-0.0032812357,381.0,88.0,152.0,3271539500.0,NoFix,8,0,0.0,0.0,0,0.0,0.0,0,43.145214,31.352356,143.73831,970.6336,27.707,-494.52124,37.596947,351.19476
5.103746,-5.6837726,-6.1021724,0.000364583,-0.0047391653,-0.0032812357,381.0,88.0,147.0,3272850700.0,NoFix,8,0,0.0,0.0,0,0.0,0.0,0,43.143494,31.353453,143.73602,970.6336,27.707,-494.58487,37.58507,341.69836
5.1048374,-5.7385206,-6.116657,0.03427083,-0.03937471,-0.020416655,376.0,88.0,152.0,3274162200.0,NoFix,8,0,0.0,0.0,0,0.0,0.0,0,43.143986,31.352936,143.71463,970.6336,27.707,-485.4142,37.424656,351.2584
5.112132,-5.7342243,-6.0958915,-0.00072916783,-0.0047391653,-0.0368229,378.0,99.0,151.0,3275473700.0,NoFix,8,0,0.0,0.0,0,0.0,0.0,0,43.14467,31.354002,143.71204,970.6336,27.707,-489.4488,58.068634,349.35977
5.0993385,-5.716553,-6.0977373,-0.00072916783,0.0131253,-0.002187483,384.0,91.0,150.0,3276785200.0,NoFix,8,0,0.0,0.0,0,0.0,0.0,0,43.144848,31.354546,143.71207,970.6336,27.707,-500.1143,43.307594,347.3651
5.089873,-5.7010236,-6.0925984,-0.0010937508,-0.00364542,-0.019687489,376.0,91.0,146.0,3278096400.0,NoFix,8,0,0.0,0.0,0,0.0,0.0,0,43.14423,31.355055,143.70863,970.6336,27.707,-485.59396,43.022434,339.8698
5.0862746,-5.72366,-6.1164603,0.033541664,-0.021145463,0.032083347,380.0,94.0,146.0,3279407900.0,NoFix,8,0,0.0,0.0,0,0.0,0.0,0,43.14459,31.35351,143.71542,970.6336,27.707,-492.98294,48.772293,339.82605
5.1110435,-5.7307854,-6.105315,-0.0014583338,-0.021145463,0.014583349,383.0,94.0,145.0,3280719400.0,NoFix,8,0,0.0,0.0,0,0.0,0.0,0,43.144962,31.353483,143.72914,970.63367,27.707565,-498.45987,48.873287,337.88858
5.109565,-5.7281294,-6.0605927,-0.018958334,0.032812834,0.013489597,385.0,93.0,148.0,3282030600.0,NoFix,8,0,0.0,0.0,0,0.0,0.0,0,43.1473,31.35515,143.73917,970.63367,27.707565,-502.03006,47.078655,343.5586
5.0970054,-5.7258964,-6.1284842,-0.0014583338,0.0842191,-0.021510407,381.0,87.0,153.0,3283342000.0,NoFix,8,0,0.0,0.0,0,0.0,0.0,0,43.146923,31.355972,143.72334,970.63367,27.707565,-494.47406,35.72864,353.09164
5.0939474,-5.721008,-6.144335,-0.0010937508,-0.002916336,0.01312501,374.0,96.0,143.0,3284653600.0,NoFix,8,0,0.0,0.0,0,0.0,0.0,0,43.145214,31.354753,143.7298,970.63367,27.707565,-482.1616,52.29977,334.20932
5.1056623,-5.7321277,-6.079825,-0.01859375,0.031354427,-0.004739575,382.0,89.0,151.0,3285965000.0,NoFix,8,0,0.0,0.0,0,0.0,0.0,0,43.14673,31.355963,143.72314,970.63367,27.707565,-496.38983,39.499702,349.2851
5.104274,-5.713639,-6.1137824,-0.0010937508,-0.02078104,-0.004010409,385.0,95.0,148.0,3287276300.0,NoFix,8,0,0.0,0.0,0,0.0,0.0,0,43.145744,31.355993,143.73285,970.63367,27.707565,-502.09897,50.82001,343.56332
5.109855,-5.7374563,-6.13512,-0.035364587,0.013854384,0.013489589,375.0,97.0,148.0,3288587800.0,NoFix,8,0,0.0,0.0,0,0.0,0.0,0,43.144726,31.355625,143.73058,970.63367,27.707565,-483.95383,54.21678,343.69534
5.117704,-5.71358,-6.0996494,-0.00072916783,-0.0047392845,-0.004374996,385.0,91.0,146.0,3289899300.0,NoFix,8,0,0.0,0.0,0,0.0,0.0,0,43.14453,31.35684,143.74078,970.63367,27.707565,-501.9866,43.332558,339.75528
5.098767,-5.7488422,-6.154378,-0.00072916783,0.011666894,0.012395836,376.0,87.0,150.0,3291210500.0,NoFix,8,0,0.0,0.0,0,0.0,0.0,0,43.14383,31.355286,143.72359,970.63367,27.707565,-485.4052,35.549225,347.45743
5.083449,-5.7316856,-6.117701,-0.017500002,0.010573149,-0.02223958,378.0,86.0,148.0,3292522000.0,NoFix,8,0,0.0,0.0,0,0.0,0.0,0,43.143353,31.354572,143.7131,970.63367,27.707565,-489.039,33.742718,343.63104
5.126155,-5.712803,-6.114065,-0.00036458485,-0.007291317,-0.005104162,387.0,93.0,146.0,3293833500.0,NoFix,8,0,0.0,0.0,0,0.0,0.0,0,43.14246,31.355873,143.72832,970.63367,27.707848,-505.69833,47.142822,339.7346
5.091489,-5.7129083,-6.0995417,-0.03463542,-0.00802052,-0.005104162,387.0,89.0,148.0,3295145000.0,NoFix,8,0,0.0,0.0,0,0.0,0.0,0,43.141575,31.355812,143.73444,970.63367,27.707848,-505.53503,39.664867,343.52362
5.102122,-5.7234993,-6.143036,-0.016406251,0.009114742,0.029531233,372.0,85.0,143.0,3296456200.0,NoFix,8,0,0.0,0.0,0,0.0,0.0,0,43.14004,31.35491,143.72531,970.63367,27.707848,-478.13974,31.65342,334.20865
5.125678,-5.703735,-6.12996,0.001093749,0.0087502,0.028802067,384.0,94.0,147.0,3297767700.0,NoFix,8,0,0.0,0.0,0,0.0,0.0,0,43.138493,31.355812,143.73515,970.63367,27.707848,-500.25583,48.912502,341.67444
5.0904555,-5.676526,-6.082079,0.000729166,0.043385744,0.044843733,379.0,91.0,142.0,3299079200.0,NoFix,8,0,0.0,0.0,0,0.0,0.0,0,43.13818,31.356865,143.74702,970.63367,27.707848,-491.10907,43.116306,332.2345
5.0869403,-5.715108,-6.1115246,0.0175,0.059791923,0.0608854,380.0,97.0,151.0,3300390400.0,NoFix,11,0,0.0,0.0,0,0.0,0.0,0,43.13901,31.35636,143.74666,970.6332,27.707848,-493.02267,54.3962,349.32956
5.1086774,-5.727061,-6.0868697,0.01640625,-0.010208011,0.04192707,373.0,97.0,151.0,3301702000.0,NoFix,11,0,0.0,0.0,0,0.0,0.0,0,43.14074,31.356455,143.73465,970.6332,27.707848,-480.27283,54.15499,349.41867
5.055734,-5.7321496,-6.0541945,0.033541664,-0.027708054,0.024062485,383.0,100.0,149.0,3303013400.0,NoFix,11,0,0.0,0.0,0,0.0,0.0,0,43.144222,31.354603,143.74718,970.6332,27.707848,-498.61572,60.10685,345.49997
5.12492,-5.7377877,-6.1140466,0.015677083,-0.027343512,-0.044843763,376.0,89.0,144.0,3304324900.0,NoFix,11,0,0.0,0.0,0,0.0,0.0,0,43.14431,31.355583,143.7455,970.6332,27.707848,-485.55048,39.276333,336.06653
5.0731664,-5.727513,-6.0885315,-0.0021874998,-0.02697897,-0.04375001,383.0,91.0,149.0,3305636000.0,NoFix,11,0,0.0,0.0,0,0.0,0.0,0,43.144737,31.354832,143.74525,970.6328,27.70417,-498.3056,43.270767,345.47858
5.1235995,-5.738285,-6.105999,-0.0021874998,-0.04374981,-0.043020844,382.0,95.0,149.0,3306947600.0,NoFix,11,0,0.0,0.0,0,0.0,0.0,0,43.14477,31.355673,143.74777,970.6328,27.70417,-496.62204,50.719013,345.5008
5.087873,-5.701979,-6.1075206,-0.0021874998,-0.06052053,-0.04192709,381.0,93.0,151.0,3308259000.0,NoFix,11,0,0.0,0.0,0,0.0,0.0,0,43.14287,31.355228,143.74051,970.6328,27.70417,-494.70627,46.947952,349.30734
5.095109,-5.7408395,-6.140838,0.016041666,-0.076562285,-0.041197926,382.0,86.0,146.0,3309570300.0,NoFix,11,0,0.0,0.0,0,0.0,0.0,0,43.141582,31.353432,143.73854,970.6328,27.70417,-496.3501,33.8758,339.7816
5.102305,-5.7352147,-6.103498,-0.0014583338,-0.0058330297,-0.024062514,376.0,89.0,151.0,3310881800.0,NoFix,11,0,0.0,0.0,0,0.0,0.0,0,43.14208,31.353657,143.72124,970.6328,27.70417,-485.4614,39.292957,349.36148
5.0893297,-5.693634,-6.1290264,-0.052135415,-0.023333073,-0.006197922,387.0,94.0,149.0,3312193300.0,NoFix,11,0,0.0,0.0,0,0.0,0.0,0,43.138485,31.353073,143.7295,970.6328,27.70417,-505.6946,49.020622,345.43478
5.096112,-5.7186446,-6.136919,-0.050677083,0.045937777,0.028072909,376.0,93.0,148.0,3313504500.0,NoFix,11,0,0.0,0.0,0,0.0,0.0,0,43.13665,31.352676,143.72444,970.6342,27.70417,-485.63742,46.768536,343.67313
5.100668,-5.7060905,-6.134093,-0.032083333,0.010937691,0.027343743,386.0,94.0,152.0,3314816000.0,NoFix,11,0,0.0,0.0,0,0.0,0.0,0,43.134422,31.35233,143.72552,970.6342,27.70417,-503.83502,48.993294,351.14536
5.070618,-5.704141,-6.089498,-0.032083333,0.0634377,-0.007656254,379.0,94.0,148.0,3316127500.0,NoFix,11,0,0.0,0.0,0,0.0,0.0,0,43.13423,31.35271,143.72678,970.6342,27.70417,-491.13608,48.742584,343.63733
5.0731854,-5.747577,-6.0890417,0.0029166676,0.010937691,0.009843744,378.0,98.0,143.0,3317439000.0,NoFix,11,0,0.0,0.0,0,0.0,0.0,0,43.13652,31.3514,143.74403,970.6342,27.70417,-489.5161,56.178955,334.16315
5.10806,-5.7105145,-6.0654016,-0.014583332,0.028437734,-0.007656254,384.0,91.0,149.0,3318750200.0,NoFix,11,0,0.0,0.0,0,0.0,0.0,0,43.137768,31.35349,143.74692,970.6342,27.70417,-500.127,43.30522,345.46585
5.0980043,-5.6852508,-6.0999207,0.0029166676,-0.024062276,0.027343743,382.0,96.0,147.0,3320061700.0,NoFix,11,0,0.0,0.0,0,0.0,0.0,0,43.13645,31.353657,143.75575,970.6346,27.707848,-496.68195,52.584938,341.70462
5.0766325,-5.7266855,-6.1187906,0.037916668,-0.024062276,-0.02515626,373.0,88.0,149.0,3321373200.0,NoFix,11,0,0.0,0.0,0,0.0,0.0,0,43.13651,31.352268,143.73637,970.6346,27.707848,-479.98816,37.314156,345.59872
5.104218,-5.738358,-6.0901837,0.0029166676,-0.024062276,-0.02515626,383.0,94.0,147.0,3322684400.0,NoFix,11,0,0.0,0.0,0,0.0,0.0,0,43.137722,31.352575,143.74509,970.6346,27.707848,-498.43442,48.87804,341.68716
5.0557575,-5.720427,-6.113131,0.0029166676,0.010937691,-0.007656254,382.0,87.0,142.0,3323996000.0,NoFix,11,0,0.0,0.0,0,0.0,0.0,0,43.137466,31.350693,143.75554,970.6346,27.707848,-496.43546,35.736973,332.18683
5.1324067,-5.7238803,-6.1190095,0.037916668,-0.024062276,0.009843744,388.0,95.0,149.0,3325307400.0,NoFix,11,0,0.0,0.0,0,0.0,0.0,0,43.137672,31.351578,143.7674,970.6346,27.707848,-507.55048,50.92576,345.42444
5.0629773,-5.7367806,-6.091061,0.018958338,-0.006926894,-0.0054687485,380.0,99.0,139.0,3326619000.0,NoFix,11,0,0.0,0.0,0,0.0,0.0,0,43.139378,31.34992,143.79745,970.6346,27.707848,-493.24435,58.10905,326.54297
5.1080055,-5.699478,-6.1397285,-0.015312497,-0.007291436,-0.021875001,376.0,92.0,141.0,3327930000.0,NoFix,11,0,0.0,0.0,0,0.0,0.0,0,43.136314,31.350348,143.80531,970.6346,27.707848,-485.69208,44.881233,330.3758
5.1333327,-5.679043,-6.119269,-0.031354167,0.02770853,-0.0546875,372.0,91.0,143.0,3329241600.0,NoFix,11,0,0.0,0.0,0,0.0,0.0,0,43.13291,31.353725,143.80089,970.6346,27.707848,-478.3465,42.877476,334.2229
5.117668,-5.6858916,-6.121204,-0.013124997,-0.04156232,-0.0018229112,382.0,91.0,140.0,3330553000.0,NoFix,11,0,0.0,0.0,0,0.0,0.0,0,43.130035,31.354498,143.81857,970.6346,27.707848,-496.5988,43.21493,328.39777
5.1057887,-5.70812,-6.1354814,-0.030624999,0.045937777,0.015677087,384.0,95.0,148.0,3331864300.0,NoFix,11,0,0.0,0.0,0,0.0,0.0,0,43.128117,31.354944,143.82678,970.6346,27.707848,-500.27756,50.78555,343.57605
5.103325,-5.7257705,-6.099482,0.0043750033,0.045937777,0.050677083,376.0,92.0,143.0,3333175800.0,NoFix,11,0,0.0,0.0,0,0.0,0.0,0,43.129623,31.355225,143.83315,970.6347,27.708977,-485.6666,44.885983,334.17435
5.0763774,-5.738434,-6.0731196,0.056875005,-0.024062276,0.050677083,382.0,87.0,147.0,3334487300.0,NoFix,1,0,0.0,0.0,0,0.0,0.0,0,43.133354,31.353552,143.83304,970.6347,27.708977,-496.37183,35.74885,341.68326
5.139982,-5.745296,-6.0653257,0.039375003,0.010937691,0.033177085,384.0,100.0,149.0,3335798800.0,NoFix,1,0,0.0,0.0,0,0.0,0.0,0,43.1375,31.355665,143.847,970.6347,27.708977,-500.43713,60.141304,345.4872
5.0460644,-5.7398453,-6.0733232,-0.013124997,0.045937777,0.033177085,379.0,91.0,148.0,3337110000.0,NoFix,1,0,0.0,0.0,0,0.0,0.0,0,43.14029,31.353704,143.84521,970.6347,27.708977,-491.0327,43.130558,343.6302
5.0666766,-5.726991,-6.0623307,0.021875003,0.010937691,-0.0018229112,383.0,93.0,147.0,3338421500.0,NoFix,1,0,0.0,0.0,0,0.0,0.0,0,43.143013,31.353203,143.85294,970.6347,27.708977,-498.39996,47.007366,341.68478
5.094648,-5.729345,-6.095774,0.0043750033,-0.006562233,-0.019322917,387.0,92.0,153.0,3339733000.0,NoFix,1,0,0.0,0.0,0,0.0,0.0,0,43.14371,31.353281,143.85007,970.6333,27.708977,-505.5748,45.288773,353.02716
5.0730333,-5.7265954,-6.116782,0.0043750033,-0.04156232,-0.054322913,384.0,91.0,150.0,3341044200.0,NoFix,1,0,0.0,0.0,0,0.0,0.0,0,43.142757,31.351906,143.84694,970.6333,27.708977,-500.1143,43.307594,347.3651
5.093237,-5.7120585,-6.1022515,-0.030624999,-0.04156232,-0.054322913,383.0,96.0,146.0,3342355700.0,NoFix,1,0,0.0,0.0,0,0.0,0.0,0,43.141094,31.352097,143.85764,970.6333,27.708977,-498.51605,52.61702,339.7926
5.099943,-5.718155,-6.135174,0.021875003,-0.059062243,-0.036822915,385.0,95.0,149.0,3343667200.0,NoFix,1,0,0.0,0.0,0,0.0,0.0,0,43.13929,31.351318,143.86232,970.6333,27.708977,-502.08624,50.822388,345.46262
5.102724,-5.6709127,-6.1330233,-0.013124997,-0.006562233,0.033177085,376.0,96.0,144.0,3344978700.0,NoFix,1,0,0.0,0.0,0,0.0,0.0,0,43.135674,31.351482,143.86746,970.6333,27.708977,-485.7917,52.371063,336.08316
5.080435,-5.6858435,-6.1321273,-0.083125,0.028437734,0.033177085,381.0,90.0,142.0,3346290000.0,NoFix,1,0,0.0,0.0,0,0.0,0.0,0,43.13179,31.350792,143.87854,970.63226,27.699371,-494.7174,41.314545,332.20667
5.090935,-5.7109933,-6.128633,-0.013124997,-0.006562233,0.050677083,383.0,89.0,142.0,3347601400.0,NoFix,1,0,0.0,0.0,0,0.0,0.0,0,43.130512,31.349466,143.8917,970.63226,27.699371,-498.32574,39.512783,332.17883
5.118343,-5.671941,-6.121892,0.074375,-0.059062243,0.050677083,383.0,96.0,148.0,3348913000.0,NoFix,1,0,0.0,0.0,0,0.0,0.0,0,43.128925,31.349642,143.89735,970.63226,27.699371,-498.4906,52.62177,343.59116
5.0692964,-5.705245,-6.0942526,0.021875003,-0.04156232,0.033177085,387.0,84.0,149.0,3350224100.0,NoFix,1,0,0.0,0.0,0,0.0,0.0,0,43.12918,31.34788,143.89423,970.63226,27.699371,-505.35004,30.313862,345.41104
5.125518,-5.7431893,-6.0937934,0.021875003,0.010937691,0.033177085,379.0,88.0,148.0,3351535600.0,NoFix,1,0,0.0,0.0,0,0.0,0.0,0,43.13167,31.348795,143.88779,970.63226,27.699371,-490.92932,37.518528,343.62308
5.0852017,-5.7674966,-6.082731,-0.030624999,0.010937691,0.033177085,376.0,95.0,151.0,3352847000.0,NoFix,1,0,0.0,0.0,0,0.0,0.0,0,43.134785,31.34754,143.87837,970.6355,27.699371,-485.66815,50.517014,349.37573
5.0666347,-5.78983,-6.091669,0.0043750033,0.010937691,0.050677083,372.0,96.0,147.0,3354158600.0,NoFix,1,0,0.0,0.0,0,0.0,0.0,0,43.13935,31.344553,143.87424,970.6355,27.699371,-478.46786,52.240356,341.8319
5.0321536,-5.7486806,-6.1029806,0.021875003,0.010937691,0.033177085,383.0,97.0,148.0,3355469800.0,NoFix,1,0,0.0,0.0,0,0.0,0.0,0,43.141594,31.340748,143.88434,970.6355,27.699371,-498.52505,54.492443,343.59354
5.0925245,-5.7712436,-6.0962725,0.021875003,0.010937691,-0.0018229112,382.0,90.0,143.0,3356781300.0,NoFix,1,0,0.0,0.0,0,0.0,0.0,0,43.144894,31.340021,143.89645,970.6355,27.699371,-496.5261,41.35138,334.09323
5.0827684,-5.731606,-6.085296,-0.013124997,0.028437734,0.015677087,380.0,90.0,146.0,3358092800.0,NoFix,1,0,0.0,0.0,0,0.0,0.0,0,43.14637,31.339844,143.89827,970.6355,27.699371,-492.8451,41.28959,339.81653
5.081548,-5.7236786,-6.1060295,-0.030624999,0.028437734,-0.019322917,384.0,91.0,151.0,3359404000.0,NoFix,1,0,0.0,0.0,0,0.0,0.0,0,43.145916,31.339806,143.89426,970.6355,27.699371,-500.10156,43.30997,349.2644
5.0971384,-5.722846,-6.1357155,-0.013124997,0.010937691,-0.019322917,383.0,92.0,147.0,3360715500.0,NoFix,1,0,0.0,0.0,0,0.0,0.0,0,43.144302,31.339651,143.89832,970.6355,27.699371,-498.3655,45.136692,341.6824
5.0944424,-5.720119,-6.075034,0.039375003,-0.024062276,-0.0018229112,382.0,95.0,147.0,3362027000.0,NoFix,1,0,0.0,0.0,0,0.0,0.0,0,43.146137,31.339987,143.90549,970.6355,27.699371,-496.6475,50.714264,341.70224
5.1164002,-5.703048,-6.0963826,0.039375003,-0.059062243,-0.019322917,384.0,92.0,144.0,3363338500.0,NoFix,1,0,0.0,0.0,0,0.0,0.0,0,43.145775,31.340998,143.91728,970.6355,27.699371,-500.2251,45.16402,335.97183
5.131036,-5.710976,-6.027473,0.021875003,-0.006562233,-0.036822915,383.0,94.0,148.0,3364649700.0,NoFix,1,0,0.0,0.0,0,0.0,0.0,0,43.148823,31.344976,143.92276,970.6355,27.699371,-498.4217,48.880413,343.58643
5.1491594,-5.760108,-6.1143603,-0.013124997,0.045937777,-0.019322917,374.0,92.0,154.0,3365961200.0,NoFix,1,0,0.0,0.0,0,0.0,0.0,0,43.150173,31.347431,143.89787,970.6361,27.705582,-481.8838,44.843193,355.0919
5.111534,-5.714577,-6.1188416,-0.013124997,0.028437734,0.033177085,376.0,90.0,150.0,3367272700.0,NoFix,1,0,0.0,0.0,0,0.0,0.0,0,43.14946,31.347975,143.88309,970.6361,27.705582,-485.50858,41.161255,347.46457
5.116848,-5.7046266,-6.096682,-0.030624999,0.045937777,0.033177085,381.0,98.0,148.0,3368584000.0,NoFix,1,0,0.0,0.0,0,0.0,0.0,0,43.14907,31.349665,143.89075,970.6361,27.705582,-494.91672,56.294205,343.62137
5.0932593,-5.722523,-6.1164227,0.0043750033,0.010937691,0.015677087,377.0,95.0,147.0,3369895400.0,NoFix,6,0,0.0,0.0,0,0.0,0.0,0,43.148884,31.34918,143.89023,970.6361,27.705582,-487.54044,50.541973,341.7659
5.0933833,-5.7323422,-6.142667,0.056875005,-0.059062243,0.050677083,384.0,92.0,152.0,3371207000.0,NoFix,6,0,0.0,0.0,0,0.0,0.0,0,43.14875,31.346537,143.88416,970.6361,27.705582,-500.1233,45.18302,351.16608
5.057153,-5.7522526,-6.108948,0.0043750033,-0.006562233,-0.0018229112,383.0,86.0,148.0,3372518100.0,NoFix,6,0,0.0,0.0,0,0.0,0.0,0,43.150055,31.343931,143.88045,970.63477,27.705582,-498.14603,33.915005,343.5674
5.077884,-5.7455454,-6.1040707,0.021875003,-0.024062276,-0.019322917,382.0,93.0,148.0,3373829600.0,NoFix,6,0,0.0,0.0,0,0.0,0.0,0,43.151268,31.342548,143.88266,970.63477,27.705582,-496.56586,46.975285,343.59677
5.0510554,-5.7431064,-6.1193137,0.039375003,-0.04156232,-0.019322917,379.0,89.0,147.0,3375141000.0,NoFix,6,0,0.0,0.0,0,0.0,0.0,0,43.151882,31.339386,143.8774,970.63477,27.705582,-490.9765,39.38683,341.7262
5.0845914,-5.7461553,-6.1022415,0.021875003,-0.024062276,0.015677087,377.0,91.0,153.0,3376452600.0,NoFix,6,0,0.0,0.0,0,0.0,0.0,0,43.153492,31.337938,143.8585,970.63477,27.705582,-487.32626,43.073517,353.15204
5.1114197,-5.724205,-6.129679,0.021875003,-0.04156232,-0.036822915,379.0,90.0,150.0,3377763800.0,NoFix,6,0,0.0,0.0,0,0.0,0.0,0,43.15224,31.338078,143.84659,970.63477,27.705582,-490.97278,41.26463,347.42636
5.1278825,-5.7089615,-6.129679,0.014947916,-0.019322753,-0.024791636,378.0,86.0,150.0,3379075300.0,NoFix,6,0,0.0,0.0,0,0.0,0.0,0,43.15042,31.339455,143.82901,970.6345,27.702194,-489.01355,33.747467,347.4296
5.107152,-5.6973763,-6.0809,0.014583333,-0.01859355,-0.02406247,375.0,99.0,150.0,3380386800.0,NoFix,6,0,0.0,0.0,0,0.0,0.0,0,43.15025,31.3411,143.82253,970.6345,27.702194,-483.9973,57.962883,347.49866
5.090079,-5.713839,-6.085778,-0.0032812497,-0.051770568,0.027708367,382.0,91.0,149.0,3381698000.0,NoFix,6,0,0.0,0.0,0,0.0,0.0,0,43.150467,31.340345,143.8206,970.6345,27.702194,-496.48422,43.23631,345.4913
5.0766644,-5.71262,-6.1138263,-0.020416666,0.00036489964,-0.006562464,381.0,95.0,146.0,3383009500.0,NoFix,6,0,0.0,0.0,0,0.0,0.0,0,43.149185,31.339573,143.82858,970.6345,27.702194,-494.8388,50.67743,339.8157
5.0937376,-5.739448,-6.1229725,0.08348958,-0.017135143,-0.0069270507,380.0,90.0,151.0,3384321000.0,NoFix,6,0,0.0,0.0,0,0.0,0.0,0,43.150608,31.338634,143.81754,970.6345,27.702194,-492.78146,41.301464,349.31293
5.0809326,-5.6766453,-6.126021,0.030989584,0.05286491,-0.0069270507,384.0,92.0,147.0,3385632500.0,NoFix,6,0,0.0,0.0,0,0.0,0.0,0,43.148445,31.339262,143.82367,970.63666,27.702194,-500.18692,45.171146,341.66968
5.092518,-5.7010345,-6.0967536,-0.021510417,0.035364866,0.028072946,376.0,94.0,139.0,3386943700.0,NoFix,6,0,0.0,0.0,0,0.0,0.0,0,43.147926,31.339874,143.84108,970.63666,27.702194,-485.78644,48.617836,326.582
5.103493,-5.721156,-6.0809,0.0134895835,0.05286491,0.045572944,379.0,90.0,148.0,3388255200.0,NoFix,6,0,0.0,0.0,0,0.0,0.0,0,43.150047,31.34095,143.83789,970.63666,27.702194,-490.99823,41.25988,343.6278
5.1333704,-5.694328,-6.1455326,0.0134895835,-0.017135143,0.08057294,383.0,92.0,148.0,3389566700.0,NoFix,6,0,0.0,0.0,0,0.0,0.0,0,43.14773,31.341166,143.84036,970.63666,27.702194,-498.35278,45.139065,343.58167
5.048617,-5.7510333,-6.114436,0.030989584,0.00036489964,0.08057294,382.0,86.0,146.0,3390878000.0,NoFix,6,0,0.0,0.0,0,0.0,0.0,0,43.149994,31.337132,143.84154,970.63666,27.701355,-496.3501,33.8758,339.7816
5.0888596,-5.760789,-6.1138263,0.0134895835,0.035364866,0.08057294,378.0,90.0,149.0,3392189400.0,NoFix,6,0,0.0,0.0,0,0.0,0.0,0,43.15266,31.335356,143.83498,970.63666,27.701355,-489.1641,41.2278,345.53986
5.0906887,-5.7388387,-6.086388,0.030989584,0.07036483,0.045572944,383.0,91.0,143.0,3393501000.0,NoFix,6,0,0.0,0.0,0,0.0,0.0,0,43.155804,31.33564,143.85124,970.63666,27.701355,-498.38196,43.256516,334.0829
5.106718,-5.719451,-6.093797,0.030989584,-0.034635186,0.028072946,378.0,90.0,145.0,3394812400.0,NoFix,6,0,0.0,0.0,0,0.0,0.0,0,43.156677,31.335684,143.85155,970.63666,27.701355,-489.215,41.218296,337.94272
5.1054983,-5.7060375,-6.10721,-0.0040104166,-0.017135143,0.028072946,382.0,89.0,150.0,3396123600.0,NoFix,6,0,0.0,0.0,0,0.0,0.0,0,43.155773,31.335892,143.8446,970.63666,27.701355,-496.40256,39.497326,347.3858
5.079282,-5.7505445,-6.1236715,0.0134895835,-0.017135143,0.045572944,387.0,93.0,148.0,3397435100.0,NoFix,6,0,0.0,0.0,0,0.0,0.0,0,43.15675,31.333399,143.85533,970.63666,27.701355,-505.67288,47.14757,343.53314
5.075014,-5.7145734,-6.135865,0.030989584,-0.05213511,0.010572948,386.0,90.0,150.0,3398746600.0,NoFix,6,0,0.0,0.0,0,0.0,0.0,0,43.155216,31.331144,143.85417,970.63477,27.701355,-503.72263,41.505836,347.33728
5.0933046,-5.717012,-6.1084294,0.0134895835,-0.017135143,-0.0069270507,383.0,91.0,147.0,3400057900.0,NoFix,6,0,0.0,0.0,0,0.0,0.0,0,43.15484,31.331028,143.85768,970.63477,27.701355,-498.33105,43.266018,341.68002
5.08355,-5.7389607,-6.091358,-0.0040104166,-0.05213511,-0.024427056,383.0,89.0,145.0,3401369300.0,NoFix,6,0,0.0,0.0,0,0.0,0.0,0,43.155506,31.33012,143.86362,970.63477,27.701355,-498.28757,39.51991,337.87668
5.1054983,-5.717012,-6.1242814,-0.021510417,0.00036489964,0.010572948,381.0,88.0,148.0,3402680800.0,NoFix,6,0,0.0,0.0,0,0.0,0.0,0,43.154034,31.330278,143.8585,970.63477,27.701355,-494.57214,37.587444,343.59763
5.106718,-5.7157927,-6.1681786,-0.0040104166,0.035364866,0.010572948,384.0,88.0,147.0,3403992300.0,NoFix,8,0,0.0,0.0,0,0.0,0.0,0,43.151188,31.330076,143.85971,970.63477,27.701355,-500.04907,37.688442,341.6602
5.1012306,-5.6712856,-6.1376944,-0.0040104166,0.017864823,-0.0069270507,381.0,90.0,149.0,3405303600.0,NoFix,8,0,0.0,0.0,0,0.0,0.0,0,43.147297,31.331127,143.85313,970.63513,27.705582,-494.62833,41.331173,345.50165
5.125008,-5.7511544,-6.060264,-0.0040104166,0.017864823,-0.0069270507,384.0,91.0,149.0,3406615000.0,NoFix,8,0,0.0,0.0,0,0.0,0.0,0,43.150703,31.333344,143.85602,970.63513,27.705582,-500.127,43.30522,345.46585
5.112815,-5.7328634,-6.1041617,0.048489586,0.00036489964,-0.0069270507,381.0,91.0,146.0,3407926500.0,NoFix,8,0,0.0,0.0,0,0.0,0.0,0,43.15212,31.33416,143.85966,970.63513,27.705582,-494.701,43.194725,339.80618
5.1060405,-5.7380486,-6.0793457,0.0134895835,-0.017135143,-0.0069270507,381.0,90.0,144.0,3409237800.0,NoFix,8,0,0.0,0.0,0,0.0,0.0,0,43.154057,31.334824,143.86723,970.63513,27.705582,-494.69196,41.319298,336.00525
5.0816493,-5.7258444,-6.118335,-0.03901042,0.00036489964,0.028072946,383.0,85.0,148.0,3410549200.0,NoFix,8,0,0.0,0.0,0,0.0,0.0,0,43.15311,31.333519,143.86235,970.63885,27.705582,-498.11157,32.04433,343.56503
5.130094,-5.7187934,-6.106993,-0.03901042,0.07036483,0.028072946,383.0,92.0,148.0,3411860700.0,NoFix,8,0,0.0,0.0,0,0.0,0.0,0,43.152878,31.335888,143.86658,970.63885,27.705582,-498.35278,45.139065,343.58167
5.069451,-5.725146,-6.112713,-0.05651042,0.035364866,0.028072946,389.0,96.0,148.0,3413172200.0,NoFix,8,0,0.0,0.0,0,0.0,0.0,0,43.152103,31.334614,143.8837,970.63885,27.705582,-509.41907,52.828514,343.5148
5.089509,-5.7421503,-6.12301,-0.0040104166,-0.034635186,-0.0069270507,382.0,91.0,146.0,3414483500.0,NoFix,8,0,0.0,0.0,0,0.0,0.0,0,43.151814,31.333231,143.8878,970.63885,27.705582,-496.5224,43.229183,339.79346
5.061035,-5.7319803,-6.102493,0.0134895835,-0.06963515,-0.024427056,381.0,97.0,149.0,3415795000.0,NoFix,8,0,0.0,0.0,0,0.0,0.0,0,43.151886,31.330889,143.88977,970.63885,27.705582,-494.86954,54.425907,345.51828
5.0606174,-5.7340255,-6.1112556,-0.0040104166,-0.05213511,-0.024427056,383.0,89.0,150.0,3417106400.0,NoFix,8,0,0.0,0.0,0,0.0,0.0,0,43.151463,31.328552,143.88329,970.63885,27.705582,-498.22394,39.531784,347.37308
5.080866,-5.6817694,-6.094967,-0.0040104166,0.017864823,-0.024427056,383.0,85.0,147.0,3418417700.0,NoFix,8,0,0.0,0.0,0,0.0,0.0,0,43.149826,31.32957,143.87944,970.63885,27.705582,-498.1243,32.041958,341.66577
5.0773826,-5.724625,-6.1177244,-0.03901042,0.017864823,0.010572948,384.0,93.0,145.0,3419729200.0,NoFix,8,0,0.0,0.0,0,0.0,0.0,0,43.14888,31.328629,143.89207,970.63885,27.705582,-500.24683,47.037075,337.87347
5.0536795,-5.7320137,-6.090379,-0.03901042,-0.017135143,0.010572948,385.0,91.0,148.0,3421040600.0,NoFix,8,0,0.0,0.0,0,0.0,0.0,0,43.149227,31.326496,143.897,970.63885,27.705582,-501.96115,43.337307,343.55383
5.105996,-5.718496,-6.0957475,-0.021510417,0.017864823,0.010572948,378.0,91.0,148.0,3422352100.0,NoFix,8,0,0.0,0.0,0,0.0,0.0,0,43.149296,31.327532,143.89146,970.63885,27.705582,-489.2113,43.0961,343.6429
5.084344,-5.72004,-6.096703,-0.05651042,0.00036489964,-0.0069270507,390.0,92.0,147.0,3423663400.0,NoFix,8,0,0.0,0.0,0,0.0,0.0,0,43.14846,31.327463,143.90656,970.63885,27.705582,-511.11536,45.377895,341.59332
5.0928593,-5.6907644,-6.0979004,-0.03901042,-0.017135143,0.045572944,379.0,93.0,150.0,3424974800.0,NoFix,8,0,0.0,0.0,0,0.0,0.0,0,43.1468,31.327423,143.89932,970.6393,27.705582,-491.07617,46.87666,347.4335
5.0769486,-5.721776,-6.112451,0.0134895835,0.00036489964,0.028072946,384.0,92.0,149.0,3426286300.0,NoFix,8,0,0.0,0.0,0,0.0,0.0,0,43.14697,31.326162,143.90132,970.6393,27.705582,-500.16147,45.175896,345.46823
5.105636,-5.730281,-6.1038494,-0.0040104166,0.00036489964,-0.0069270507,381.0,96.0,146.0,3427597600.0,NoFix,8,0,0.0,0.0,0,0.0,0.0,0,43.147305,31.32676,143.91054,970.6393,27.705582,-494.87326,52.548103,339.81805
5.06775,-5.743044,-6.11604,-0.021510417,-0.05213511,0.010572948,377.0,97.0,151.0,3428909000.0,NoFix,8,0,0.0,0.0,0,0.0,0.0,0,43.147114,31.324085,143.90216,970.6393,27.705582,-487.55844,54.292824,349.36774
5.035743,-5.709857,-6.1359024,-0.0040104166,0.00036489964,0.028072946,389.0,97.0,151.0,3430220500.0,NoFix,8,0,0.0,0.0,0,0.0,0.0,0,43.145325,31.320623,143.91182,970.6393,27.705582,-509.41534,54.706318,349.21503
5.0870967,-5.706374,-6.091594,-0.0040104166,-0.034635186,0.028072946,379.0,97.0,150.0,3431531800.0,NoFix,8,0,0.0,0.0,0,0.0,0.0,0,43.145103,31.320179,143.90926,970.6414,27.725372,-491.214,54.359364,347.443
5.114556,-5.721037,-6.089802,-0.0040104166,0.00036489964,-0.0069270507,381.0,94.0,151.0,3432843300.0,NoFix,8,0,0.0,0.0,0,0.0,0.0,0,43.145657,31.321737,143.90428,970.6414,27.725372,-494.74072,48.818626,349.30972
5.077877,-5.6960006,-6.11235,-0.0040104166,0.00036489964,-0.0069270507,384.0,93.0,146.0,3434154800.0,NoFix,8,0,0.0,0.0,0,0.0,0.0,0,43.143993,31.321558,143.91328,970.6414,27.725372,-500.2341,47.03945,339.77277
5.097084,-5.673181,-6.1011386,-0.0040104166,-0.017135143,-0.0069270507,381.0,85.0,149.0,3435466200.0,NoFix,8,0,0.0,0.0,0,0.0,0.0,0,43.141617,31.32274,143.90115,970.6414,27.725372,-494.45605,31.977789,345.48978
5.1027994,-5.7295227,-6.0623937,0.0134895835,-0.06963515,0.028072946,387.0,91.0,143.0,3436777500.0,NoFix,8,0,0.0,0.0,0,0.0,0.0,0,43.1439,31.322706,143.92061,970.6414,27.725372,-505.6676,43.39435,334.03198
5.120074,-5.7601595,-6.102148,0.0134895835,-0.017135143,-0.0069270507,385.0,91.0,147.0,3438089000.0,NoFix,10,0,0.0,0.0,0,0.0,0.0,0,43.145958,31.32322,143.92778,970.64233,27.725372,-501.97388,43.334934,341.65457
5.11076,-5.728879,-6.117794,0.0134895835,-0.034635186,-0.024427056,385.0,89.0,148.0,3439400400.0,NoFix,10,0,0.0,0.0,0,0.0,0.0,0,43.14552,31.323553,143.92857,970.64233,27.725372,-501.8922,39.59595,343.54907
5.097005,-5.7243004,-6.0992146,-0.021510417,0.00036489964,0.010572948,377.0,94.0,146.0,3440711700.0,NoFix,10,0,0.0,0.0,0,0.0,0.0,0,43.145626,31.323757,143.92935,970.64233,27.725372,-487.5187,48.66892,339.86423
5.087836,-5.7523146,-6.1229596,-0.0040104166,-0.034635186,0.010572948,385.0,95.0,144.0,3442023200.0,NoFix,10,0,0.0,0.0,0,0.0,0.0,0,43.146038,31.32198,143.9476,970.64233,27.725372,-502.14987,50.810513,335.96622
5.1362624,-5.687926,-6.111579,-0.021510417,-0.06963515,0.010572948,387.0,87.0,141.0,3443334700.0,NoFix,10,0,0.0,0.0,0,0.0,0.0,0,43.14328,31.32355,143.96391,970.64233,27.725372,-505.55524,35.90689,330.22394
5.0812244,-5.71272,-6.115634,-0.05651042,0.00036489964,0.010572948,372.0,93.0,143.0,3444646100.0,NoFix,10,0,0.0,0.0,0,0.0,0.0,0,43.14144,31.322878,143.9621,970.64233,27.725372,-478.4154,46.618828,334.22763
5.0771646,-5.70198,-6.088452,-0.021510417,-0.034635186,0.045572944,389.0,88.0,145.0,3445957400.0,NoFix,10,0,0.0,0.0,0,0.0,0.0,0,43.140995,31.321869,143.97516,970.64233,27.725372,-509.18158,37.85598,337.79794
5.0879703,-5.699429,-6.0969076,-0.09151042,-0.017135143,0.010572948,386.0,91.0,141.0,3447268900.0,NoFix,10,0,0.0,0.0,0,0.0,0.0,0,43.138573,31.321962,143.99612,970.64233,27.725372,-503.87167,43.355137,330.24615
5.125711,-5.6768107,-6.093793,-0.03901042,0.00036489964,-0.0069270507,385.0,92.0,143.0,3448580400.0,NoFix,10,0,0.0,0.0,0,0.0,0.0,0,43.136223,31.324837,144.01155,970.64233,27.725372,-502.05923,45.196106,334.0598
5.105948,-5.7088346,-6.112385,-0.05651042,0.017864823,0.028072946,388.0,93.0,142.0,3449891600.0,NoFix,10,0,0.0,0.0,0,0.0,0.0,0,43.134693,31.325493,144.03578,970.64233,27.725372,-507.57065,47.16778,332.1247
4.970618,-5.6417794,-5.96974,-0.021510417,0.035364866,0.028072946,384.0,92.0,151.0,3451203000.0,NoFix,10,0,0.0,0.0,0,0.0,0.0,0,43.137215,31.32426,144.03386,970.64264,27.728477,-500.13602,45.180645,349.26678
5.6643343,-6.0983644,-6.3568316,-0.05651042,0.22786486,-0.18192706,388.0,103.0,150.0,3452514600.0,NoFix,10,0,0.0,0.0,0,0.0,0.0,0,43.142776,31.343367,144.0548,970.64264,27.728477,-507.81342,65.89354,347.3427
4.970618,-5.3113804,-5.912439,-0.35401043,0.087864876,0.46557292,378.0,97.0,145.0,3453826000.0,NoFix,10,0,0.0,0.0,0,0.0,0.0,0,43.129276,31.345076,144.06447,970.64264,27.728477,-489.4562,54.31303,337.95932
5.2516403,-5.766136,-6.3720713,-0.44151044,0.36786485,0.16807294,380.0,94.0,146.0,3455137300.0,NoFix,10,0,0.0,0.0,0,0.0,0.0,0,43.11583,31.34887,144.07153,970.64264,27.728477,-492.98294,48.772293,339.82605
5.1742215,-5.5143747,-5.975836,-0.40651044,0.087864876,0.58807296,381.0,90.0,149.0,3456448800.0,NoFix,10,0,0.0,0.0,0,0.0,0.0,0,43.109894,31.353151,144.07372,970.64264,27.728477,-494.62833,41.331173,345.50165
4.946844,-5.7380953,-6.244666,-0.2490104,0.26286483,0.028072946,384.0,89.0,150.0,3457760300.0,NoFix,10,0,0.0,0.0,0,0.0,0.0,0,43.102394,31.34601,144.06987,970.63904,27.728477,-500.04535,39.566242,347.36035
5.238229,-5.6734786,-6.122748,-0.30151042,0.07036483,0.500573,376.0,88.0,147.0,3459071500.0,NoFix,10,0,0.0,0.0,0,0.0,0.0,0,43.098816,31.347786,144.06593,970.63904,27.728477,-485.47784,37.41278,341.762
4.819439,-5.6119094,-6.1581044,-0.33651042,0.28036487,0.29057294,382.0,91.0,144.0,3460383000.0,NoFix,10,0,0.0,0.0,0,0.0,0.0,0,43.08982,31.33555,144.07901,970.63904,27.728477,-496.54785,43.224434,335.9949
5.1467905,-5.7978354,-6.341592,-0.38901043,0.17536485,0.4130729,386.0,82.0,150.0,3461694500.0,NoFix,10,0,0.0,0.0,0,0.0,0.0,0,43.08107,31.328693,144.07497,970.63904,27.728477,-503.447,26.540428,347.31827
4.9693985,-5.720417,-6.264173,-0.28401044,0.17536485,0.39557293,387.0,97.0,148.0,3463006000.0,NoFix,10,0,0.0,0.0,0,0.0,0.0,0,43.073902,31.316813,144.09377,970.6384,27.72226,-505.8107,54.630276,343.54263
4.903563,-5.7015195,-6.1398163,-0.10901042,0.17536485,0.16807294,382.0,90.0,153.0,3464317200.0,NoFix,10,0,0.0,0.0,0,0.0,0.0,0,43.072815,31.30775,144.08395,970.6384,27.72226,-496.39883,41.37513,353.08603
5.0809546,-5.80576,-6.23857,0.08348958,0.017864823,0.045572944,379.0,94.0,148.0,3465628700.0,NoFix,10,0,0.0,0.0,0,0.0,0.0,0,43.073723,31.302626,144.082,970.6384,27.72226,-491.13608,48.742584,343.63733
5.0809546,-5.7332187,-6.091659,0.065989584,0.00036489964,-0.0069270507,387.0,97.0,150.0,3466940200.0,NoFix,10,0,0.0,0.0,0,0.0,0.0,0,43.07677,31.302475,144.09131,970.6384,27.72226,-505.78525,54.635025,347.3412
5.009022,-5.733828,-6.021556,0.030989584,0.00036489964,-0.07692705,385.0,93.0,146.0,3468251400.0,NoFix,10,0,0.0,0.0,0,0.0,0.0,0,43.08175,31.301262,144.10272,970.6384,27.72226,-502.0555,47.073906,339.76004
5.0961943,-5.7807665,-6.084953,0.065989584,-0.017135143,-0.14692706,381.0,89.0,142.0,3469563000.0,NoFix,10,0,0.0,0.0,0,0.0,0.0,0,43.085957,31.302626,144.11101,970.6384,27.72226,-494.68295,39.443867,332.2043
5.169345,-5.7368755,-6.067275,0.10098958,-0.13963509,-0.111927055,377.0,90.0,146.0,3470874400.0,NoFix,10,0,0.0,0.0,0,0.0,0.0,0,43.08882,31.30654,144.10303,970.63617,27.72226,-487.38086,41.186214,339.85474
5.1467905,-5.6594577,-5.981932,0.0134895835,-0.12213516,-0.111927055,384.0,90.0,148.0,3472185900.0,NoFix,12,0,0.0,0.0,0,0.0,0.0,0,43.090275,31.312986,144.10114,970.63617,27.72226,-500.10526,41.43217,343.56418
5.165688,-5.6320257,-6.120919,-0.03901042,-0.017135143,-0.111927055,376.0,91.0,148.0,3473497000.0,NoFix,12,0,0.0,0.0,0,0.0,0.0,0,43.08401,31.319277,144.08601,970.63617,27.72226,-485.5685,43.027184,343.66837
5.1224065,-5.6490946,-6.128844,-0.10901042,0.00036489964,-0.059427053,379.0,87.0,147.0,3474808600.0,NoFix,12,0,0.0,0.0,0,0.0,0.0,0,43.077515,31.322508,144.07483,970.63617,27.72226,-490.9076,35.645477,341.72144
5.077906,-5.630197,-6.1727347,-0.07401042,-0.034635186,0.028072946,380.0,96.0,147.0,3476120000.0,NoFix,12,0,0.0,0.0,0,0.0,0.0,0,43.069355,31.321402,144.07518,970.63617,27.72226,-493.03912,52.51602,341.73007
5.0614476,-5.680184,-6.1940703,0.0134895835,0.00036489964,0.010572948,384.0,96.0,141.0,3477431300.0,NoFix,12,0,0.0,0.0,0,0.0,0.0,0,43.06451,31.3188,144.09688,970.63586,27.719719,-500.40112,52.6396,330.28348
5.077906,-5.692375,-6.226379,-0.0040104166,0.035364866,0.028072946,381.0,94.0,150.0,3478742800.0,NoFix,12,0,0.0,0.0,0,0.0,0.0,0,43.05897,31.316347,144.09055,970.63586,27.719719,-494.75345,48.81625,347.41043
5.044988,-5.706396,-6.153837,0.065989584,0.035364866,0.010572948,378.0,89.0,148.0,3480054300.0,NoFix,12,0,0.0,0.0,0,0.0,0.0,0,43.058537,31.313814,144.08046,970.63586,27.719719,-489.14236,39.354744,343.63818
5.079735,-5.742972,-6.1891932,0.08348958,0.017864823,0.010572948,381.0,96.0,147.0,3481365800.0,NoFix,12,0,0.0,0.0,0,0.0,0.0,0,43.05849,31.311275,144.08545,970.63586,27.719719,-494.86053,52.55048,341.71735
5.1126533,-5.757602,-6.063008,0.065989584,0.035364866,-0.0069270507,385.0,90.0,149.0,3482677000.0,NoFix,12,0,0.0,0.0,0,0.0,0.0,0,43.064404,31.313164,144.08778,970.63586,27.719719,-501.91394,41.469,345.45074
5.0833926,-5.7966156,-6.051426,0.065989584,0.017864823,0.010572948,379.0,92.0,148.0,3483988500.0,NoFix,12,0,0.0,0.0,0,0.0,0.0,0,43.072643,31.312645,144.08698,970.63904,27.719719,-491.06717,45.001232,343.63257
5.121797,-5.7746706,-6.009973,0.048489586,0.07036483,0.010572948,386.0,90.0,146.0,3485300000.0,NoFix,12,0,0.0,0.0,0,0.0,0.0,0,43.081703,31.315998,144.09999,970.63904,27.719719,-503.77353,41.496338,339.74017
5.1266737,-5.7886915,-6.041063,0.030989584,-0.06963515,-0.041927055,377.0,88.0,148.0,3486611200.0,NoFix,12,0,0.0,0.0,0,0.0,0.0,0,43.08806,31.317352,144.08911,970.63904,27.719719,-487.2865,37.44961,343.64853
5.1163106,-5.7825956,-6.065446,-0.0040104166,-0.06963515,-0.07692705,385.0,90.0,148.0,3487922700.0,NoFix,12,0,0.0,0.0,0,0.0,0.0,0,43.09202,31.31826,144.09123,970.63904,27.719719,-501.92667,41.466625,343.55145
5.048646,-5.750287,-6.087392,0.030989584,-0.10463512,-0.09442706,377.0,91.0,152.0,3489234200.0,NoFix,12,0,0.0,0.0,0,0.0,0.0,0,43.093655,31.315836,144.07083,970.63904,27.719719,-487.339,43.071144,351.25278
5.040721,-5.6850605,-6.173344,-0.0040104166,-0.06963515,-0.111927055,383.0,93.0,150.0,3490545400.0,NoFix,12,0,0.0,0.0,0,0.0,0.0,0,43.087803,31.313253,144.0635,970.6395,27.724236,-498.3618,47.01449,347.3826
5.066324,-5.6612864,-6.186146,-0.021510417,-0.087135196,-0.09442706,377.0,91.0,147.0,3491857000.0,NoFix,12,0,0.0,0.0,0,0.0,0.0,0,43.07998,31.311634,144.05115,970.6395,27.724236,-487.40262,43.05927,341.75638
5.1144814,-5.666163,-6.159933,0.030989584,-0.087135196,-0.09442706,384.0,93.0,148.0,3493168400.0,NoFix,12,0,0.0,0.0,0,0.0,0.0,0,43.074642,31.3128,144.0502,970.6395,27.724236,-500.20865,47.0442,343.57132
5.127893,-5.672259,-6.1038504,0.048489586,-0.087135196,-0.09442706,379.0,88.0,148.0,3494480000.0,NoFix,12,0,0.0,0.0,0,0.0,0.0,0,43.072468,31.315657,144.0375,970.6395,27.724236,-490.92932,37.518528,343.62308
5.1126533,-5.702129,-6.120919,0.0134895835,0.00036489964,-0.07692705,375.0,90.0,145.0,3495791000.0,NoFix,12,0,0.0,0.0,0,0.0,0.0,0,43.071167,31.317802,144.03018,970.6368,27.724236,-483.7508,41.11492,337.9809
5.1016803,-5.6954236,-6.112385,0.048489586,-0.017135143,0.028072946,378.0,90.0,144.0,3497102600.0,NoFix,12,0,0.0,0.0,0,0.0,0.0,0,43.071335,31.318096,144.03133,970.6368,27.724236,-489.22772,41.215923,336.04346
5.119968,-5.710054,-6.082515,0.0134895835,0.035364866,0.06307294,385.0,86.0,147.0,3498414000.0,NoFix,12,0,0.0,0.0,0,0.0,0.0,0,43.07358,31.319878,144.03357,970.6368,27.724236,-501.80157,33.98155,341.6427
5.1327696,-5.6850605,-6.0751996,-0.021510417,0.07036483,0.045572944,384.0,93.0,146.0,3499725300.0,NoFix,12,0,0.0,0.0,0,0.0,0.0,0,43.07441,31.323627,144.04457,970.6368,27.724236,-500.2341,47.03945,339.77277
5.104728,-5.732609,-6.0934873,-0.0040104166,0.035364866,0.06307294,378.0,90.0,150.0,3501036800.0,NoFix,12,0,0.0,0.0,0,0.0,0.0,0,43.07689,31.323956,144.03403,970.6368,27.724236,-489.15137,41.23017,347.43912
5.0492554,-5.772842,-6.0684943,-0.0040104166,0.087864876,0.028072946,381.0,89.0,144.0,3502348300.0,NoFix,12,0,0.0,0.0,0,0.0,0.0,0,43.082504,31.322567,144.04283,970.6368,27.724236,-494.6575,39.44862,336.0029
5.101071,-5.7484584,-6.0380144,0.0134895835,0.035364866,-0.024427056,379.0,83.0,147.0,3503659800.0,NoFix,12,0,0.0,0.0,0,0.0,0.0,0,43.087727,31.324724,144.03323,970.6368,27.7248,-490.76978,28.162771,341.71194
5.0693717,-5.750287,-6.094097,0.030989584,0.00036489964,-0.024427056,383.0,96.0,146.0,3504971000.0,NoFix,12,0,0.0,0.0,0,0.0,0.0,0,43.090534,31.323652,144.04517,970.6368,27.7248,-498.51605,52.61702,339.7926
5.0693717,-5.7435813,-6.1257963,-0.0040104166,-0.05213511,-0.0069270507,380.0,91.0,143.0,3506282500.0,NoFix,3,0,0.0,0.0,0,0.0,0.0,0,43.09065,31.32109,144.05226,970.6368,27.7248,-492.91776,43.15314,334.12106
5.028529,-5.6655536,-6.0977545,0.0134895835,-0.10463512,-0.024427056,374.0,88.0,148.0,3507594000.0,NoFix,3,0,0.0,0.0,0,0.0,0.0,0,43.088047,31.31823,144.03249,970.6368,27.7248,-481.8223,37.346237,343.6867
5.051694,-5.6929855,-6.1282344,-0.0040104166,-0.06963515,-0.07692705,382.0,91.0,147.0,3508905200.0,NoFix,3,0,0.0,0.0,0,0.0,0.0,0,43.084938,31.31648,144.03056,970.6368,27.7248,-496.50967,43.23156,341.69275
5.0730295,-5.6643343,-6.109337,-0.021510417,-0.087135196,-0.041927055,379.0,90.0,148.0,3510216700.0,NoFix,3,0,0.0,0.0,0,0.0,0.0,0,43.081142,31.316048,144.02075,970.6354,27.7248,-490.99823,41.25988,343.6278
5.108386,-5.675307,-6.155056,-0.021510417,0.035364866,-0.024427056,382.0,95.0,147.0,3511528200.0,NoFix,3,0,0.0,0.0,0,0.0,0.0,0,43.077007,31.31759,144.02516,970.6354,27.7248,-496.6475,50.714264,341.70224
5.11753,-5.6686015,-6.159323,-0.0040104166,0.05286491,-0.024427056,383.0,93.0,147.0,3512839700.0,NoFix,3,0,0.0,0.0,0,0.0,0.0,0,43.07288,31.319847,144.02869,970.6354,27.7248,-498.39996,47.007366,341.68478
5.133989,-5.6472654,-6.1544466,-0.03901042,0.035364866,0.045572944,384.0,95.0,144.0,3514151000.0,NoFix,3,0,0.0,0.0,0,0.0,0.0,0,43.06776,31.322227,144.04358,970.6354,27.7248,-500.32846,50.77605,335.97894
5.160201,-5.7380953,-6.085563,-0.0040104166,0.05286491,0.028072946,385.0,102.0,149.0,3515462400.0,NoFix,3,0,0.0,0.0,0,0.0,0.0,0,43.070747,31.325964,144.06032,970.63477,27.718018,-502.32745,63.917114,345.47925
5.1419134,-5.7283416,-6.0526447,0.030989584,0.07036483,0.045572944,388.0,94.0,151.0,3516774000.0,NoFix,3,0,0.0,0.0,0,0.0,0.0,0,43.07567,31.329714,144.06795,970.63477,27.718018,-507.49057,49.059834,349.2206
5.104728,-5.713102,-6.041672,0.0134895835,0.00036489964,0.028072946,389.0,96.0,150.0,3518085000.0,NoFix,3,0,0.0,0.0,0,0.0,0.0,0,43.07928,31.331446,144.08006,970.63477,27.718018,-509.39362,52.833263,347.31335
5.0955844,-5.7423625,-6.0861726,0.048489586,0.035364866,0.045572944,374.0,87.0,146.0,3519396600.0,NoFix,3,0,0.0,0.0,0,0.0,0.0,0,43.083355,31.331455,144.06909,970.63477,27.718018,-481.8133,35.47081,339.88577
5.0523033,-5.737486,-6.055083,-0.0040104166,0.017864823,0.028072946,380.0,89.0,151.0,3520708000.0,NoFix,3,0,0.0,0.0,0,0.0,0.0,0,43.087276,31.330141,144.05795,970.63477,27.718018,-492.747,39.430786,349.31058
5.0352345,-5.750287,-6.1453032,-0.0040104166,0.07036483,0.010572948,385.0,97.0,150.0,3522019600.0,NoFix,3,0,0.0,0.0,0,0.0,0.0,0,43.087986,31.326824,144.06473,970.63477,27.718018,-502.14243,54.56611,347.36664
5.0431595,-5.7783284,-6.1276245,-0.03901042,0.017864823,0.010572948,388.0,89.0,146.0,3523330800.0,NoFix,3,0,0.0,0.0,0,0.0,0.0,0,43.089733,31.323008,144.07599,970.63116,27.718018,-507.3819,39.694576,339.71234
5.0766873,-5.7271223,-6.11909,-0.0040104166,-0.017135143,0.010572948,375.0,91.0,152.0,3524642300.0,NoFix,3,0,0.0,0.0,0,0.0,0.0,0,43.089798,31.321524,144.0543,970.63116,27.718018,-483.6962,43.002228,351.27826
5.082783,-5.7185884,-6.086782,-0.03901042,-0.017135143,-0.041927055,382.0,90.0,151.0,3525953800.0,NoFix,3,0,0.0,0.0,0,0.0,0.0,0,43.08978,31.321873,144.04462,970.63116,27.718018,-496.4243,41.37038,349.28748
5.0864406,-5.7508965,-6.1050696,-0.021510417,0.035364866,-0.059427053,378.0,97.0,148.0,3527265000.0,NoFix,3,0,0.0,0.0,0,0.0,0.0,0,43.091103,31.322344,144.04506,970.63116,27.718018,-489.41803,54.320156,343.65717
5.1595917,-5.705177,-6.116652,-0.03901042,0.087864876,-0.059427053,385.0,95.0,146.0,3528576500.0,NoFix,3,0,0.0,0.0,0,0.0,0.0,0,43.089787,31.327662,144.0577,970.63116,27.718018,-502.12442,50.81526,339.76477
5.1474,-5.677746,-6.0380144,-0.0040104166,0.05286491,-0.024427056,377.0,95.0,148.0,3529888000.0,NoFix,3,0,0.0,0.0,0,0.0,0.0,0,43.09137,31.333649,144.05458,970.63116,27.718018,-487.5277,50.544346,343.66516
5.1467905,-5.6814027,-6.0843434,-0.021510417,-0.017135143,0.010572948,379.0,92.0,151.0,3531199500.0,NoFix,3,0,0.0,0.0,0,0.0,0.0,0,43.090454,31.337053,144.04242,970.63116,27.718018,-491.029,45.008358,349.3304
5.143742,-5.6990814,-6.0782475,-0.0040104166,-0.05213511,0.010572948,382.0,96.0,152.0,3532510700.0,NoFix,3,0,0.0,0.0,0,0.0,0.0,0,43.09072,31.339563,144.03722,970.63116,27.718018,-496.61832,52.596813,351.20102
5.1266737,-5.6551905,-6.1459126,0.0134895835,-0.017135143,0.028072946,384.0,90.0,150.0,3533822200.0,NoFix,3,0,0.0,0.0,0,0.0,0.0,0,43.086636,31.340929,144.03107,970.63116,27.718018,-500.0798,41.43692,347.36273
5.0340157,-5.691766,-6.1343303,0.0134895835,-0.05213511,0.045572944,376.0,97.0,146.0,3535133700.0,NoFix,3,0,0.0,0.0,0,0.0,0.0,0,43.08471,31.33667,144.03156,970.63116,27.718018,-485.8007,54.24649,339.88406
5.051694,-5.736266,-6.1221385,-0.0040104166,0.035364866,0.028072946,379.0,90.0,150.0,3536445000.0,NoFix,3,0,0.0,0.0,0,0.0,0.0,0,43.085693,31.334126,144.02133,970.62994,27.707,-490.97278,41.26463,347.42636
5.025481,-5.74602,-6.085563,0.030989584,0.035364866,0.028072946,377.0,95.0,148.0,3537756400.0,NoFix,3,0,0.0,0.0,0,0.0,0.0,0,43.089424,31.330923,144.01974,970.62994,27.707,-487.5277,50.544346,343.66516
5.0175567,-5.7356567,-6.11909,0.0134895835,0.05286491,-0.0069270507,380.0,90.0,146.0,3539068000.0,NoFix,3,0,0.0,0.0,0,0.0,0.0,0,43.09064,31.327562,144.02034,970.62994,27.707,-492.8451,41.28959,339.81653
5.054132,-5.739314,-6.097145,0.030989584,0.035364866,0.010572948,378.0,99.0,146.0,3540379100.0,NoFix,6,0,0.0,0.0,0,0.0,0.0,0,43.09335,31.32592,144.02933,970.62994,27.707,-489.51242,58.05676,339.86337
5.068153,-5.732609,-6.110556,-0.0040104166,0.035364866,-0.024427056,380.0,101.0,147.0,3541690600.0,NoFix,6,0,0.0,0.0,0,0.0,0.0,0,43.094135,31.32526,144.04022,970.62994,27.707,-493.21143,61.869404,341.74197
5.104728,-5.7003,-6.1020217,-0.03901042,0.035364866,-0.024427056,387.0,92.0,150.0,3543002000.0,NoFix,6,0,0.0,0.0,0,0.0,0.0,0,43.093094,31.32717,144.04288,970.62225,27.707,-505.61298,45.281647,347.3293
5.0949745,-5.737486,-6.050816,-0.0040104166,0.00036489964,-0.041927055,382.0,95.0,152.0,3544313600.0,NoFix,6,0,0.0,0.0,0,0.0,0.0,0,43.096367,31.328697,144.0381,970.62225,27.707,-496.58386,50.72614,351.19864
5.160811,-5.7118826,-6.0770288,0.0134895835,-0.017135143,-0.059427053,378.0,88.0,151.0,3545624800.0,NoFix,6,0,0.0,0.0,0,0.0,0.0,0,43.097263,31.333265,144.01988,970.62225,27.707,-489.06973,37.491196,349.33365
5.165688,-5.705177,-6.136159,-0.021510417,0.017864823,-0.059427053,379.0,86.0,149.0,3546936300.0,NoFix,6,0,0.0,0.0,0,0.0,0.0,0,43.094803,31.337385,144.0048,970.62225,27.707,-490.8477,33.779552,345.5176
5.1443515,-5.664944,-6.0861726,0.0134895835,-0.05213511,-0.041927055,381.0,94.0,145.0,3548247800.0,NoFix,6,0,0.0,0.0,0,0.0,0.0,0,43.092934,31.34112,144.01085,970.62225,27.707,-494.81708,48.804375,337.91403
5.129112,-5.7015195,-6.106289,-0.021510417,0.00036489964,-0.041927055,375.0,93.0,143.0,3549559000.0,NoFix,6,0,0.0,0.0,0,0.0,0.0,0,43.091675,31.343668,144.01265,970.6228,27.71209,-483.87964,46.722202,334.18945
5.088269,-5.706396,-6.109337,0.0134895835,0.035364866,0.010572948,388.0,95.0,147.0,3550870500.0,NoFix,6,0,0.0,0.0,0,0.0,0.0,0,43.09192,31.343893,144.02792,970.6228,27.71209,-507.57593,50.92101,341.6259
5.100461,-5.7003,-6.133111,-0.0040104166,0.017864823,0.010572948,387.0,96.0,147.0,3552182000.0,NoFix,6,0,0.0,0.0,0,0.0,0.0,0,43.090332,31.344057,144.04189,970.6228,27.71209,-505.78897,52.75723,341.641
5.0809546,-5.7246842,-6.1428647,-0.021510417,0.035364866,0.010572948,381.0,94.0,147.0,3553493500.0,NoFix,6,0,0.0,0.0,0,0.0,0.0,0,43.089294,31.342861,144.04515,970.6228,27.71209,-494.79163,48.809128,341.71262
5.098023,-5.739314,-6.1160426,-0.021510417,0.05286491,0.06307294,380.0,91.0,151.0,3554804700.0,NoFix,6,0,0.0,0.0,0,0.0,0.0,0,43.09075,31.342323,144.03606,970.6228,27.71209,-492.81595,43.172142,349.3153
5.0638857,-5.710054,-6.0758095,-0.0040104166,0.05286491,0.045572944,380.0,90.0,148.0,3556116200.0,NoFix,6,0,0.0,0.0,0,0.0,0.0,0,43.092777,31.34182,144.03288,970.6161,27.71209,-492.81964,41.29434,343.61508
5.0693717,-5.763698,-6.0666656,-0.021510417,0.00036489964,0.028072946,376.0,93.0,148.0,3557427700.0,NoFix,6,0,0.0,0.0,0,0.0,0.0,0,43.09685,31.340204,144.02751,970.6161,27.71209,-485.63742,46.768536,343.67313
5.091927,-5.761869,-6.0526447,-0.03901042,0.05286491,0.010572948,380.0,88.0,153.0,3558739000.0,NoFix,6,0,0.0,0.0,0,0.0,0.0,0,43.101364,31.34098,144.01175,970.6161,27.71209,-492.6871,37.56486,353.10675
5.127283,-5.7149305,-6.08983,-0.0040104166,0.017864823,-0.024427056,382.0,94.0,145.0,3560050400.0,NoFix,6,0,0.0,0.0,0,0.0,0.0,0,43.102024,31.343538,144.0216,970.6161,27.71209,-496.6385,48.838833,337.9013
5.1187487,-5.7484584,-6.080076,0.030989584,-0.017135143,-0.024427056,384.0,92.0,153.0,3561362000.0,NoFix,6,0,0.0,0.0,0,0.0,0.0,0,43.105095,31.344723,144.0137,970.6161,27.71209,-500.11057,45.185394,353.06534
5.101071,-5.71554,-6.1099463,0.030989584,0.017864823,-0.041927055,378.0,93.0,142.0,3562673400.0,NoFix,6,0,0.0,0.0,0,0.0,0.0,0,43.10537,31.345797,144.02278,970.61584,27.709541,-489.35657,46.8232,332.25198
5.1150913,-5.7265124,-6.1459126,-0.021510417,-0.05213511,-0.024427056,376.0,92.0,149.0,3563984600.0,NoFix,6,0,0.0,0.0,0,0.0,0.0,0,43.103153,31.34534,144.0094,970.61584,27.709541,-485.59024,44.900234,345.57004
5.119968,-5.693595,-6.133111,-0.0040104166,-0.05213511,-0.024427056,372.0,88.0,140.0,3565296000.0,NoFix,6,0,0.0,0.0,0,0.0,0.0,0,43.100296,31.346035,144.00642,970.61584,27.709541,-478.2813,37.25832,328.5179
5.0968037,-5.699691,-6.1337204,-0.03901042,0.00036489964,-0.0069270507,387.0,91.0,151.0,3566607600.0,NoFix,6,0,0.0,0.0,0,0.0,0.0,0,43.097622,31.345997,144.00471,970.61584,27.709541,-505.5658,43.41335,349.22623
5.0626664,-5.691766,-6.1483507,-0.03901042,0.087864876,-0.0069270507,384.0,97.0,142.0,3567918800.0,NoFix,6,0,0.0,0.0,0,0.0,0.0,0,43.094627,31.3454,144.02786,970.6117,27.709541,-500.42282,54.512653,332.18512
5.0638857,-5.6576285,-6.1556664,0.0134895835,0.07036483,0.010572948,383.0,96.0,148.0,3569230300.0,NoFix,6,0,0.0,0.0,0,0.0,0.0,0,43.090714,31.344908,144.03278,970.6117,27.709541,-498.4906,52.62177,343.59116
5.0596185,-5.727732,-6.1087275,-0.021510417,0.05286491,0.028072946,379.0,92.0,147.0,3570541800.0,NoFix,6,0,0.0,0.0,0,0.0,0.0,0,43.091625,31.343353,144.03218,970.6117,27.709541,-491.0799,44.99886,341.7333
5.0687623,-5.74602,-6.064227,-0.0040104166,0.035364866,0.010572948,382.0,92.0,151.0,3571853300.0,NoFix,6,0,0.0,0.0,0,0.0,0.0,0,43.095448,31.342821,144.0276,970.6117,27.709541,-496.49323,45.111732,349.29224
5.103509,-5.7423625,-6.0904393,0.0134895835,0.035364866,0.028072946,379.0,92.0,149.0,3573164500.0,NoFix,6,0,0.0,0.0,0,0.0,0.0,0,43.098362,31.343231,144.02278,970.6117,27.709541,-491.05444,45.00361,345.53186
5.1120434,-5.737486,-6.0587406,0.030989584,0.017864823,-0.0069270507,379.0,90.0,146.0,3574476000.0,NoFix,6,0,0.0,0.0,0,0.0,0.0,0,43.10233,31.345028,144.02254,970.6117,27.709541,-491.02368,41.25513,339.82925
5.107776,-5.7405334,-6.080076,0.0134895835,-0.017135143,0.010572948,383.0,96.0,138.0,3575787500.0,NoFix,10,0,0.0,0.0,0,0.0,0.0,0,43.104977,31.345373,144.05379,970.6117,27.709824,-498.6179,52.59802,324.59836
5.1028996,-5.767356,-6.0739803,0.0134895835,-0.034635186,-0.0069270507,375.0,94.0,152.0,3577098800.0,NoFix,10,0,0.0,0.0,0,0.0,0.0,0,43.108875,31.345072,144.0368,970.6117,27.709824,-483.79956,48.614254,351.28537
5.077906,-5.714321,-6.128844,0.0134895835,-0.034635186,-0.041927055,381.0,93.0,146.0,3578410200.0,NoFix,10,0,0.0,0.0,0,0.0,0.0,0,43.10747,31.343927,144.03928,970.6117,27.709824,-494.7699,46.936077,339.81094
5.08766,-5.7118826,-6.140426,-0.0040104166,-0.05213511,-0.024427056,379.0,94.0,147.0,3579721700.0,NoFix,10,0,0.0,0.0,0,0.0,0.0,0,43.105106,31.342583,144.03723,970.6117,27.709824,-491.1488,48.74021,341.73807
5.055961,-5.6954236,-6.142255,-0.0040104166,-0.05213511,-0.0069270507,380.0,91.0,151.0,3581033200.0,NoFix,10,0,0.0,0.0,0,0.0,0.0,0,43.10206,31.339802,144.02365,970.6117,27.709824,-492.81595,43.172142,349.3153
5.0730295,-5.693595,-6.1050696,0.0134895835,-0.017135143,-0.024427056,386.0,88.0,146.0,3582344400.0,NoFix,10,0,0.0,0.0,0,0.0,0.0,0,43.101078,31.339409,144.02841,970.6063,27.709824,-503.70462,37.754982,339.7354
5.068153,-5.7033486,-6.143474,-0.021510417,0.00036489964,-0.059427053,385.0,93.0,149.0,3583656000.0,NoFix,10,0,0.0,0.0,0,0.0,0.0,0,43.098007,31.338463,144.02957,970.6063,27.709824,-502.01733,47.08103,345.4579
5.0870504,-5.714321,-6.1087275,0.0134895835,-0.017135143,-0.0069270507,380.0,89.0,147.0,3584967400.0,NoFix,10,0,0.0,0.0,0,0.0,0.0,0,43.098026,31.33803,144.02505,970.6063,27.709824,-492.7979,39.421288,341.71347
5.10229,-5.729561,-6.111166,-0.021510417,0.07036483,-0.024427056,376.0,93.0,138.0,3586278700.0,NoFix,10,0,0.0,0.0,0,0.0,0.0,0,43.09855,31.339417,144.04227,970.6063,27.709824,-485.7647,46.744785,324.68033
5.152886,-5.7033486,-6.0684943,-0.0040104166,0.07036483,0.028072946,382.0,91.0,146.0,3587590100.0,NoFix,10,0,0.0,0.0,0,0.0,0.0,0,43.100487,31.343935,144.04779,970.6063,27.709824,-496.5224,43.229183,339.79346
5.130941,-5.7332187,-6.07459,-0.0040104166,0.087864876,-0.0069270507,390.0,95.0,147.0,3588901600.0,NoFix,10,0,0.0,0.0,0,0.0,0.0,0,43.1034,31.34735,144.06744,970.6075,27.720848,-511.21875,50.989925,341.60043
5.127283,-5.690547,-6.0947065,-0.021510417,0.10536492,0.010572948,379.0,97.0,152.0,3590212900.0,NoFix,10,0,0.0,0.0,0,0.0,0.0,0,43.103313,31.35099,144.06012,970.6075,27.720848,-491.18854,54.364117,351.24158
5.0809546,-5.721636,-6.113604,0.030989584,0.017864823,0.010572948,381.0,92.0,149.0,3591524400.0,NoFix,10,0,0.0,0.0,0,0.0,0.0,0,43.10418,31.350164,144.05627,970.6075,27.720848,-494.69727,45.072525,345.5064
5.088269,-5.713102,-6.1483507,-0.0040104166,-0.017135143,-0.024427056,384.0,94.0,151.0,3592835800.0,NoFix,10,0,0.0,0.0,0,0.0,0.0,0,43.101837,31.34909,144.05249,970.6075,27.720848,-500.20493,48.922,349.27155
5.0443788,-5.737486,-6.0831246,-0.021510417,0.017864823,-0.0069270507,382.0,86.0,147.0,3594147300.0,NoFix,10,0,0.0,0.0,0,0.0,0.0,0,43.103687,31.347076,144.04892,970.6075,27.720848,-496.33737,33.878178,341.68088
5.0388923,-5.7545543,-6.117262,-0.0040104166,0.035364866,-0.0069270507,379.0,89.0,145.0,3595458600.0,NoFix,10,0,0.0,0.0,0,0.0,0.0,0,43.105267,31.344019,144.04889,970.608,27.720848,-491.00195,39.382076,337.9276
5.0590086,-5.7210264,-6.1507893,0.0134895835,0.017864823,-0.0069270507,376.0,93.0,143.0,3596770000.0,NoFix,10,0,0.0,0.0,0,0.0,0.0,0,43.103947,31.341663,144.052,970.608,27.720848,-485.70105,46.75666,334.17673
5.0730295,-5.7045674,-6.11909,-0.0040104166,0.05286491,-0.024427056,376.0,94.0,153.0,3598081500.0,NoFix,10,0,0.0,0.0,0,0.0,0.0,0,43.103054,31.341707,144.03271,970.608,27.720848,-485.60825,48.651085,353.1719
5.090098,-5.7149305,-6.116652,-0.021510417,0.00036489964,-0.024427056,382.0,96.0,143.0,3599392800.0,NoFix,10,0,0.0,0.0,0,0.0,0.0,0,43.102036,31.34168,144.0487,970.608,27.720848,-496.73285,52.575436,334.10748
5.101071,-5.7301702,-6.103241,0.0134895835,0.00036489964,-0.0069270507,378.0,95.0,147.0,3600704300.0,NoFix,10,0,0.0,0.0,0,0.0,0.0,0,43.103153,31.341927,144.04868,970.6074,27.71576,-489.36185,50.57643,341.75317
5.131551,-5.6984715,-6.1203094,0.0134895835,0.017864823,0.010572948,382.0,85.0,143.0,3602015700.0,NoFix,10,0,0.0,0.0,0,0.0,0.0,0,43.10228,31.343893,144.05171,970.6074,27.71576,-496.35382,31.997997,334.08136
5.0913177,-5.712492,-6.08983,-0.03901042,0.087864876,-0.0069270507,382.0,94.0,150.0,3603327200.0,NoFix,10,0,0.0,0.0,0,0.0,0.0,0,43.102848,31.345516,144.0506,970.6074,27.71576,-496.57486,48.850708,347.3977
5.1053376,-5.719807,-6.0934873,-0.021510417,0.035364866,0.010572948,378.0,90.0,148.0,3604638500.0,NoFix,10,0,0.0,0.0,0,0.0,0.0,0,43.10368,31.346601,144.04309,970.6074,27.71576,-489.17682,41.22542,343.64056
5.1236258,-5.737486,-6.1044602,-0.0040104166,0.017864823,0.028072946,382.0,98.0,147.0,3605950000.0,NoFix,10,0,0.0,0.0,0,0.0,0.0,0,43.105164,31.347483,144.05374,970.6074,27.71576,-496.75085,56.32629,341.70938
5.097413,-5.712492,-6.067275,0.0134895835,0.017864823,-0.024427056,382.0,91.0,147.0,3607261400.0,NoFix,10,0,0.0,0.0,0,0.0,0.0,0,43.107018,31.34909,144.0553,970.6074,27.71576,-496.50967,43.23156,341.69275
5.1126533,-5.739924,-6.1416454,0.030989584,-0.017135143,0.010572948,377.0,90.0,149.0,3608572700.0,NoFix,10,0,0.0,0.0,0,0.0,0.0,0,43.107193,31.348343,144.04237,970.6047,27.71576,-487.34268,41.19334,345.55258
5.064495,-5.7240744,-6.08983,0.030989584,-0.034635186,0.010572948,381.0,96.0,150.0,3609884200.0,NoFix,12,0,0.0,0.0,0,0.0,0.0,0,43.10878,31.346468,144.04079,970.6047,27.71576,-494.82236,52.557602,347.41516
5.0754676,-5.739314,-6.063008,0.0134895835,0.017864823,0.010572948,382.0,92.0,153.0,3611195600.0,NoFix,12,0,0.0,0.0,0,0.0,0.0,0,43.112373,31.346144,144.03085,970.6047,27.71576,-496.46777,45.11648,353.0908
5.0846114,-5.690547,-6.1197,-0.021510417,0.05286491,-0.024427056,384.0,88.0,146.0,3612507100.0,NoFix,12,0,0.0,0.0,0,0.0,0.0,0,43.110363,31.34695,144.03314,970.6047,27.71576,-500.0618,37.686066,339.7609
5.063276,-5.737486,-6.1014123,-0.021510417,0.00036489964,-0.024427056,378.0,89.0,144.0,3613818400.0,NoFix,12,0,0.0,0.0,0,0.0,0.0,0,43.111023,31.345469,144.03319,970.6047,27.71576,-489.19327,39.345245,336.04108
5.108386,-5.6954236,-6.112385,-0.021510417,0.035364866,-0.059427053,379.0,93.0,148.0,3615129900.0,NoFix,12,0,0.0,0.0,0,0.0,0.0,0,43.10916,31.347694,144.02858,970.6047,27.71576,-491.10162,46.87191,343.63495
5.060228,-5.6984715,-6.0721517,0.030989584,0.035364866,-0.059427053,381.0,98.0,145.0,3616441300.0,NoFix,12,0,0.0,0.0,0,0.0,0.0,0,43.11026,31.348398,144.04129,970.6047,27.71576,-494.9549,56.28708,337.92352
5.104728,-5.660677,-6.0904393,0.030989584,0.035364866,-0.059427053,386.0,88.0,147.0,3617752600.0,NoFix,12,0,0.0,0.0,0,0.0,0.0,0,43.10873,31.351591,144.04318,970.6047,27.71576,-503.6919,37.75736,341.6347
5.1211877,-5.697862,-6.083734,-0.0040104166,0.035364866,-0.024427056,374.0,87.0,150.0,3619064000.0,NoFix,12,0,0.0,0.0,0,0.0,0.0,0,43.108913,31.354467,144.02048,970.6047,27.71576,-481.7624,35.48031,347.48288
5.133989,-5.7057867,-6.1349397,-0.021510417,-0.034635186,0.010572948,379.0,100.0,150.0,3620375600.0,NoFix,12,0,0.0,0.0,0,0.0,0.0,0,43.106606,31.355255,144.01923,970.6047,27.71576,-491.31738,59.97139,347.45013
5.1224065,-5.722245,-6.0959263,-0.021510417,-0.034635186,-0.0069270507,381.0,88.0,147.0,3621687000.0,NoFix,12,0,0.0,0.0,0,0.0,0.0,0,43.106686,31.356213,144.01515,970.60455,27.714066,-494.58487,37.58507,341.69836
5.1144814,-5.678355,-6.125186,-0.0040104166,-0.017135143,-0.024427056,380.0,95.0,145.0,3622998300.0,NoFix,12,0,0.0,0.0,0,0.0,0.0,0,43.103687,31.357506,144.02081,970.60455,27.714066,-493.03012,50.640594,337.92914
5.0864406,-5.7271223,-6.1337204,-0.03901042,0.035364866,-0.0069270507,382.0,92.0,149.0,3624309800.0,NoFix,12,0,0.0,0.0,0,0.0,0.0,0,43.102573,31.356813,144.01848,970.60455,27.714066,-496.51868,45.106983,345.49368
5.121797,-5.7173686,-6.1635904,0.030989584,0.035364866,-0.0069270507,382.0,97.0,145.0,3625621200.0,NoFix,12,0,0.0,0.0,0,0.0,0.0,0,43.101013,31.357372,144.03073,970.60455,27.714066,-496.74185,54.450863,337.90842
5.0766873,-5.7380953,-6.1221385,0.030989584,0.035364866,-0.0069270507,378.0,93.0,146.0,3626932500.0,NoFix,12,0,0.0,0.0,0,0.0,0.0,0,43.10229,31.356243,144.03108,970.60455,27.714066,-489.30566,46.832703,339.84912
5.0571804,-5.7551637,-6.121529,0.030989584,0.00036489964,0.010572948,379.0,86.0,146.0,3628244000.0,NoFix,12,0,0.0,0.0,0,0.0,0.0,0,43.10426,31.353138,144.02507,970.6,27.714066,-490.88586,33.772427,339.81976
5.0864406,-5.7356567,-6.0947065,0.0134895835,0.05286491,0.010572948,382.0,91.0,146.0,3629555500.0,NoFix,12,0,0.0,0.0,0,0.0,0.0,0,43.106575,31.353155,144.03027,970.6,27.714066,-496.5224,43.229183,339.79346
5.064495,-5.725903,-6.111166,0.0134895835,-0.017135143,0.010572948,383.0,100.0,150.0,3630866700.0,NoFix,12,0,0.0,0.0,0,0.0,0.0,0,43.107117,31.351,144.0364,970.6,27.714066,-498.603,60.109222,347.39923
5.1163106,-5.6893277,-6.067275,0.065989584,0.017864823,-0.0069270507,378.0,93.0,150.0,3632178200.0,NoFix,12,0,0.0,0.0,0,0.0,0.0,0,43.108986,31.353704,144.0269,970.6,27.714066,-489.25476,46.8422,347.44623
5.1449614,-5.691766,-6.1081176,0.048489586,0.017864823,-0.024427056,383.0,89.0,149.0,3633489700.0,NoFix,12,0,0.0,0.0,0,0.0,0.0,0,43.108654,31.357052,144.02171,970.6,27.714066,-498.23666,39.52941,345.47382
5.0937557,-5.7003,-6.1117754,-0.0040104166,0.017864823,-0.024427056,382.0,93.0,149.0,3634801200.0,NoFix,12,0,0.0,0.0,0,0.0,0.0,0,43.107567,31.357687,144.01976,970.60034,27.71746,-496.55313,46.97766,345.49606
5.107776,-5.676526,-6.0983644,0.0134895835,-0.017135143,-0.024427056,385.0,97.0,149.0,3636112400.0,NoFix,12,0,0.0,0.0,0,0.0,0.0,0,43.106014,31.35926,144.02621,970.60034,27.71746,-502.15515,54.563736,345.46738
5.082783,-5.731999,-6.100193,0.0134895835,-0.05213511,0.010572948,382.0,98.0,145.0,3637423900.0,NoFix,12,0,0.0,0.0,0,0.0,0.0,0,43.10706,31.357544,144.04034,970.60034,27.71746,-496.7763,56.321537,337.9108
5.0968037,-5.6771355,-6.1221385,-0.0040104166,-0.034635186,0.010572948,384.0,88.0,145.0,3638735400.0,NoFix,12,0,0.0,0.0,0,0.0,0.0,0,43.10429,31.35737,144.04366,970.60034,27.71746,-500.07452,37.68369,337.8616
5.08766,-5.6710396,-6.1440835,-0.021510417,0.00036489964,-0.0069270507,378.0,92.0,144.0,3640046600.0,NoFix,12,0,0.0,0.0,0,0.0,0.0,0,43.10007,31.357126,144.04478,970.60034,27.71746,-489.29666,44.957275,336.0482
5.0949745,-5.7301702,-6.100803,0.030989584,0.035364866,-0.024427056,389.0,91.0,148.0,3641358000.0,NoFix,12,0,0.0,0.0,0,0.0,0.0,0,43.10179,31.357712,144.05417,970.60034,27.71746,-509.2468,43.475136,343.50293
5.0968037,-5.7344375,-6.121529,-0.0040104166,0.035364866,0.028072946,374.0,92.0,156.0,3642669600.0,NoFix,12,0,0.0,0.0,0,0.0,0.0,0,43.102547,31.35716,144.0234,970.60034,27.71746,-481.85834,44.847942,358.89044
5.0961943,-5.7082253,-6.114823,0.0134895835,0.00036489964,-0.0069270507,379.0,96.0,146.0,3643981000.0,NoFix,4,0,0.0,0.0,0,0.0,0.0,0,43.102093,31.357216,144.02782,970.60034,27.71746,-491.23044,52.479187,339.8435
5.121797,-5.7009096,-6.1020217,0.065989584,0.035364866,-0.0069270507,382.0,90.0,151.0,3645292300.0,NoFix,4,0,0.0,0.0,0,0.0,0.0,0,43.10316,31.359398,144.01854,970.60034,27.71746,-496.4243,41.37038,349.28748
5.0949745,-5.736266,-6.123967,-0.0040104166,0.05286491,-0.024427056,378.0,89.0,148.0,3646603800.0,NoFix,4,0,0.0,0.0,0,0.0,0.0,0,43.103573,31.359583,144.0095,970.60034,27.71746,-489.14236,39.354744,343.63818
5.1016803,-5.7246842,-6.0678844,0.030989584,0.07036483,-0.024427056,376.0,97.0,149.0,3647915300.0,NoFix,4,0,0.0,0.0,0,0.0,0.0,0,43.106743,31.361748,144.00557,970.60065,27.719719,-485.7625,54.253616,345.5819
5.133989,-5.727732,-6.063617,0.0134895835,0.00036489964,-0.024427056,386.0,94.0,147.0,3649226500.0,NoFix,4,0,0.0,0.0,0,0.0,0.0,0,43.10933,31.364492,144.01704,970.60065,27.719719,-503.89865,48.98142,341.64896
5.1165586,-5.690891,-6.123164,-0.021510417,0.05286491,-0.041927055,378.0,85.0,152.0,3650538000.0,NoFix,4,0,0.0,0.0,0,0.0,0.0,0,43.107075,31.366802,143.99284,970.60065,27.719719,-488.95364,31.88154,351.2258
5.109136,-5.7297926,-6.1138926,-0.0040104166,0.00036489964,-0.024427056,386.0,92.0,146.0,3651849500.0,NoFix,4,0,0.0,0.0,0,0.0,0.0,0,43.107174,31.367205,144.00325,970.60065,27.719719,-503.84247,45.237686,339.74493
5.061634,-5.7091236,-6.1267605,-0.010208332,-0.032447815,0.0040104017,376.0,96.0,148.0,3653161000.0,NoFix,4,0,0.0,0.0,0,0.0,0.0,0,43.10557,31.36465,143.99768,970.60065,27.719719,-485.74078,52.38056,343.68027
5.0721297,-5.717806,-6.108017,-0.043750003,-0.01458323,0.0215104,387.0,98.0,144.0,3654472200.0,NoFix,4,0,0.0,0.0,0,0.0,0.0,0,43.1049,31.362875,144.02191,970.60205,27.719719,-505.89606,56.49145,335.9479
5.075519,-5.686484,-6.137086,-0.025885416,0.036458492,0.020781234,387.0,90.0,145.0,3655783700.0,NoFix,4,0,0.0,0.0,0,0.0,0.0,0,43.10216,31.361982,144.03316,970.60205,27.719719,-505.60767,41.528416,337.82816
5.1383476,-5.6992493,-6.128461,0.025520835,0.018593907,0.020416647,386.0,89.0,144.0,3657095200.0,NoFix,4,0,0.0,0.0,0,0.0,0.0,0,43.1013,31.363783,144.04425,970.60205,27.719719,-503.76453,39.62091,335.93924
5.1021037,-5.7245493,-6.134229,-0.026614584,0.018593907,0.002916649,382.0,90.0,147.0,3658406400.0,NoFix,4,0,0.0,0.0,0,0.0,0.0,0,43.100243,31.363455,144.04385,970.60205,27.719719,-496.4752,41.36088,341.69037
5.093153,-5.712574,-6.10337,-0.00875,0.018229365,0.02005206,383.0,92.0,152.0,3659718000.0,NoFix,4,0,0.0,0.0,0,0.0,0.0,0,43.100487,31.363363,144.03627,970.60205,27.719719,-498.30188,45.148567,351.1788
5.090757,-5.7034774,-6.1009827,-0.043020837,0.0014585257,0.036458306,379.0,88.0,147.0,3661029400.0,NoFix,4,0,0.0,0.0,0,0.0,0.0,0,43.09975,31.36294,144.02972,970.601,27.710678,-490.94205,37.516155,341.72382
5.138761,-5.7270756,-6.0898185,-0.025520833,0.06963563,-0.016041696,375.0,92.0,151.0,3662340900.0,NoFix,4,0,0.0,0.0,0,0.0,0.0,0,43.101074,31.366205,144.01308,970.601,27.710678,-483.74338,44.870525,349.38132
5.10099,-5.729545,-6.101435,-0.008020833,0.052135587,0.0014583096,389.0,90.0,150.0,3663652000.0,NoFix,4,0,0.0,0.0,0,0.0,0.0,0,43.10232,31.366877,144.01761,970.601,27.710678,-509.18686,41.609207,347.2991
5.1146297,-5.7267513,-6.0767097,0.009479167,-0.052864432,0.036458306,373.0,95.0,151.0,3664963600.0,NoFix,4,0,0.0,0.0,0,0.0,0.0,0,43.104332,31.36685,144.00049,970.601,27.710678,-480.20392,50.41364,349.4139
5.0657716,-5.7394605,-6.1003866,0.009479167,-0.03536439,0.0014583096,384.0,85.0,150.0,3666275000.0,NoFix,4,0,0.0,0.0,0,0.0,0.0,0,43.105717,31.364445,143.99121,970.601,27.710678,-499.90753,32.083538,347.35086
5.0893126,-5.756873,-6.108638,-0.008020833,0.01713562,0.0014583096,383.0,98.0,153.0,3667586300.0,NoFix,4,0,0.0,0.0,0,0.0,0.0,0,43.10764,31.363407,143.98923,970.601,27.710678,-498.49588,56.374992,353.09232
5.1037817,-5.721332,-6.160872,-0.060520835,0.034635663,0.0014583096,381.0,93.0,153.0,3668897800.0,NoFix,4,0,0.0,0.0,0,0.0,0.0,0,43.104652,31.362896,143.97665,970.601,27.710678,-494.68082,46.9527,353.1059
5.067408,-5.732456,-6.1335573,-0.07802083,0.034635663,-0.016041696,388.0,95.0,148.0,3670209300.0,NoFix,4,0,0.0,0.0,0,0.0,0.0,0,43.102962,31.361252,143.98932,970.601,27.710678,-507.5632,50.92338,343.52515
5.0955186,-5.7276587,-6.156806,0.026979167,-0.0003644228,-0.016041696,383.0,96.0,148.0,3671520500.0,NoFix,4,0,0.0,0.0,0,0.0,0.0,0,43.10174,31.36008,143.99458,970.601,27.710678,-498.4906,52.62177,343.59116
5.1112704,-5.72199,-6.1547356,0.011666667,-0.0018228292,0.0032812282,383.0,97.0,146.0,3672832000.0,NoFix,4,0,0.0,0.0,0,0.0,0.0,0,43.10022,31.35954,144.00603,970.60016,27.702194,-498.5505,54.487694,339.79498
5.0902233,-5.689324,-6.1421537,-0.0054687494,-0.01895845,0.0036458224,380.0,92.0,146.0,3674143500.0,NoFix,4,0,0.0,0.0,0,0.0,0.0,0,43.09725,31.358688,144.00615,970.60016,27.702194,-492.91403,45.03094,339.8213
5.0876846,-5.7202935,-6.10059,0.011302084,-0.017864704,0.020416655,385.0,97.0,148.0,3675455000.0,NoFix,4,0,0.0,0.0,0,0.0,0.0,0,43.098114,31.357779,144.01694,970.60016,27.702194,-502.16788,54.56136,343.56808
5.119225,-5.7176876,-6.091269,-0.0061979163,0.05213523,0.037916653,383.0,103.0,149.0,3676766200.0,NoFix,4,0,0.0,0.0,0,0.0,0.0,0,43.09962,31.359377,144.03113,970.60016,27.702194,-498.7191,65.71888,345.50708
5.139422,-5.7299004,-6.1253815,-0.023697916,-0.017864704,0.0029166564,371.0,90.0,148.0,3678077700.0,NoFix,7,0,0.0,0.0,0,0.0,0.0,0,43.099,31.36043,144.01132,970.60016,27.702194,-476.42697,40.984215,343.72964
5.1131315,-5.717543,-6.105049,-0.0061979163,-0.035364747,0.0029166564,378.0,92.0,149.0,3679389200.0,NoFix,7,0,0.0,0.0,0,0.0,0.0,0,43.098892,31.360662,144.0025,970.60016,27.702194,-489.23303,44.96915,345.5446
5.070652,-5.726797,-6.1130514,-0.0061979163,-0.017864704,0.0029166564,383.0,100.0,150.0,3680700400.0,NoFix,7,0,0.0,0.0,0,0.0,0.0,0,43.09901,31.358755,144.00876,970.60095,27.702194,-498.603,60.109222,347.39923
5.072558,-5.709827,-6.0924315,-0.023697916,-0.05286479,-0.014583349,380.0,90.0,148.0,3682012000.0,NoFix,7,0,0.0,0.0,0,0.0,0.0,0,43.098476,31.357468,144.00266,970.60095,27.702194,-492.81964,41.29434,343.61508
5.0804424,-5.6879263,-6.1040864,-0.0061979163,-0.035364747,0.020416655,382.0,90.0,145.0,3683323400.0,NoFix,7,0,0.0,0.0,0,0.0,0.0,0,43.097153,31.356543,144.00668,970.60095,27.702194,-496.50064,41.35613,337.89178
5.0815926,-5.7280636,-6.1271577,-0.023697916,-0.07036471,0.037916653,383.0,97.0,141.0,3684635000.0,NoFix,7,0,0.0,0.0,0,0.0,0.0,0,43.096264,31.353703,144.0304,970.60095,27.702194,-498.61417,54.47582,330.29858
5.0613365,-5.7071795,-6.156832,-0.0061979163,-0.017864704,0.0029166564,373.0,89.0,151.0,3685946000.0,NoFix,7,0,0.0,0.0,0,0.0,0.0,0,43.093525,31.350882,144.00433,970.60095,27.702194,-479.99716,39.18958,349.39966
5.077533,-5.6990476,-6.1079073,-0.023697916,0.034635305,0.0029166564,381.0,90.0,147.0,3687257600.0,NoFix,7,0,0.0,0.0,0,0.0,0.0,0,43.09268,31.350784,144.00322,970.6011,27.703323,-494.65378,41.326424,341.7031
5.0966578,-5.7285604,-6.1331735,-0.0061979163,0.017135262,0.037916653,392.0,91.0,149.0,3688569000.0,NoFix,7,0,0.0,0.0,0,0.0,0.0,0,43.092617,31.349785,144.01501,970.6011,27.703323,-514.69824,43.580887,345.36404
5.0850577,-5.716348,-6.1325364,0.011302084,0.017135262,0.0029166564,382.0,92.0,146.0,3689880300.0,NoFix,7,0,0.0,0.0,0,0.0,0.0,0,43.092033,31.348948,144.01959,970.6011,27.703323,-496.55685,45.099857,339.79584
5.086198,-5.693787,-6.0716257,-0.0061979163,0.017135262,0.020416655,380.0,93.0,145.0,3691191800.0,NoFix,7,0,0.0,0.0,0,0.0,0.0,0,43.09293,31.34969,144.02586,970.6011,27.703323,-492.9612,46.899242,337.92438
5.053431,-5.7201524,-6.111409,0.011302084,-0.00036478043,0.037916653,382.0,96.0,146.0,3692503300.0,NoFix,7,0,0.0,0.0,0,0.0,0.0,0,43.093636,31.34702,144.03603,970.6011,27.703323,-496.69467,52.58256,339.80533
5.1055665,-5.68091,-6.0667076,-0.023697916,-0.00036478043,0.037916653,385.0,98.0,144.0,3693814800.0,NoFix,7,0,0.0,0.0,0,0.0,0.0,0,43.09379,31.348602,144.0578,970.5988,27.703323,-502.25323,56.422535,335.97336
5.061568,-5.707596,-6.10984,0.011302084,-0.017864704,0.020416655,383.0,88.0,143.0,3695126000.0,NoFix,7,0,0.0,0.0,0,0.0,0.0,0,43.093666,31.346598,144.0658,970.5988,27.703323,-498.27856,37.644485,334.07578
5.0847425,-5.7167544,-6.1293607,0.028802084,-0.017864704,0.020416655,379.0,95.0,147.0,3696437500.0,NoFix,7,0,0.0,0.0,0,0.0,0.0,0,43.093433,31.345116,144.0664,970.5988,27.703323,-491.18326,50.61089,341.74045
5.104004,-5.7317204,-6.105303,-0.0061979163,-0.017864704,-0.014583349,385.0,97.0,147.0,3697749000.0,NoFix,7,0,0.0,0.0,0,0.0,0.0,0,43.094036,31.345242,144.07877,970.5988,27.703323,-502.1806,54.558987,341.66882
5.0741754,-5.694583,-6.100468,-0.023697916,-0.00036478043,-0.014583349,375.0,95.0,152.0,3699060200.0,NoFix,7,0,0.0,0.0,0,0.0,0.0,0,43.09288,31.345028,144.06076,970.5988,27.703323,-483.834,50.484932,351.28775
5.066952,-5.728813,-6.0993576,0.03390625,-0.034635663,0.012395799,375.0,84.0,145.0,3700371700.0,NoFix,7,0,0.0,0.0,0,0.0,0.0,0,43.094467,31.342978,144.04802,970.5988,27.703323,-483.54407,29.890867,337.96664
5.076667,-5.696471,-6.1224723,0.016041668,-0.00072944164,-0.021875039,379.0,88.0,146.0,3701683200.0,NoFix,7,0,0.0,0.0,0,0.0,0.0,0,43.093117,31.342497,144.04228,970.5988,27.703323,-490.95477,37.51378,339.82452
5.0647264,-5.73271,-6.0654826,-0.03609375,0.0331769,-0.004375033,381.0,94.0,148.0,3702994400.0,NoFix,7,0,0.0,0.0,0,0.0,0.0,0,43.095474,31.342176,144.04488,970.5988,27.703323,-494.7789,48.8115,343.61188
5.100077,-5.7357583,-6.088034,-0.000364583,0.04994762,-0.021875039,385.0,89.0,148.0,3704306000.0,NoFix,7,0,0.0,0.0,0,0.0,0.0,0,43.09761,31.34347,144.04706,970.5988,27.703323,-501.8922,39.59595,343.54907
5.082122,-5.7135777,-6.102447,-0.034635417,-0.01932311,-0.003645867,380.0,88.0,145.0,3705617400.0,NoFix,7,0,0.0,0.0,0,0.0,0.0,0,43.09697,31.342829,144.046,970.5996,27.710106,-492.7889,37.54586,337.9125
5.095518,-5.7239246,-6.100603,0.000729166,-0.01932311,0.013489544,382.0,97.0,144.0,3706929000.0,NoFix,7,0,0.0,0.0,0,0.0,0.0,0,43.09773,31.342438,144.06169,970.5996,27.710106,-496.75458,54.44849,336.00916
5.128439,-5.72759,-6.0683074,0.035729166,-0.036823153,-0.004010454,382.0,94.0,149.0,3708240100.0,NoFix,7,0,0.0,0.0,0,0.0,0.0,0,43.10048,31.344215,144.06189,970.5996,27.710106,-496.5876,48.848335,345.49844
5.1181407,-5.7233944,-6.1055636,0.018593749,-0.01713562,-0.0043750405,386.0,89.0,140.0,3709551600.0,NoFix,7,0,0.0,0.0,0,0.0,0.0,0,43.101166,31.345062,144.08228,970.5996,27.710106,-503.81546,39.61141,328.3421
5.07904,-5.730605,-6.0926538,0.0018229149,-0.015677333,0.012395792,379.0,102.0,145.0,3710863000.0,NoFix,7,0,0.0,0.0,0,0.0,0.0,0,43.102604,31.343971,144.09734,970.5996,27.710106,-491.44992,63.700867,337.95847
5.079395,-5.710281,-6.0717454,0.002187498,-0.015677333,0.028802037,377.0,93.0,152.0,3712174300.0,NoFix,9,0,0.0,0.0,0,0.0,0.0,0,43.104145,31.34353,144.08153,970.5996,27.710106,-487.4079,46.812496,351.25754
5.0613794,-5.7179017,-6.100721,0.053229164,-0.014583588,-0.041197963,384.0,95.0,146.0,3713485800.0,NoFix,9,0,0.0,0.0,0,0.0,0.0,0,43.105133,31.342407,144.0915,970.6027,27.710106,-500.303,50.7808,339.7775
5.085232,-5.6881204,-6.1587267,0.0007291641,-0.03171909,0.027708285,384.0,92.0,145.0,3714797300.0,NoFix,9,0,0.0,0.0,0,0.0,0.0,0,43.101547,31.340652,144.09895,970.6027,27.710106,-500.21237,45.166393,337.8711
5.0907836,-5.6961184,-6.1027226,0.017864581,-0.03171909,-0.02442713,387.0,87.0,146.0,3716108800.0,NoFix,9,0,0.0,0.0,0,0.0,0.0,0,43.100742,31.340881,144.10313,970.6027,27.710106,-505.49158,35.918766,339.72034
5.127518,-5.7504764,-6.093652,-0.017135419,0.07328093,-0.04192713,380.0,92.0,153.0,3717420000.0,NoFix,9,0,0.0,0.0,0,0.0,0.0,0,43.102974,31.343672,144.0892,970.6027,27.710106,-492.82495,45.047565,353.11624
5.1095924,-5.7319107,-6.097012,0.00036458112,-0.03171909,-0.006927125,380.0,91.0,150.0,3718731500.0,NoFix,9,0,0.0,0.0,0,0.0,0.0,0,43.103943,31.343948,144.07973,970.6027,27.710106,-492.82867,43.169765,347.41602
5.0562716,-5.7310505,-6.1169,0.00036458112,0.020780921,-0.04192713,376.0,89.0,145.0,3720043000.0,NoFix,9,0,0.0,0.0,0,0.0,0.0,0,43.10409,31.342476,144.07353,970.6029,27.711235,-485.53775,39.278706,337.9658
5.119188,-5.7269316,-6.0963326,0.017864581,0.020780921,0.010572873,378.0,89.0,152.0,3721354200.0,NoFix,9,0,0.0,0.0,0,0.0,0.0,0,43.105747,31.343845,144.05519,970.6029,27.711235,-489.09146,39.364246,351.23532
5.080434,-5.704668,-6.0814033,0.00036458112,-0.014219046,0.010572873,381.0,98.0,143.0,3722665700.0,NoFix,9,0,0.0,0.0,0,0.0,0.0,0,43.106388,31.343628,144.07289,970.6029,27.711235,-494.98035,56.28233,334.12497
5.0978155,-5.728109,-6.113355,0.00036458112,0.038280964,-0.006927125,385.0,96.0,149.0,3723977200.0,NoFix,9,0,0.0,0.0,0,0.0,0.0,0,43.106964,31.344051,144.0798,970.6029,27.711235,-502.1207,52.69306,345.465
5.095146,-5.6950054,-6.099179,0.017864581,0.055780888,-0.02442713,379.0,95.0,149.0,3725288700.0,NoFix,9,0,0.0,0.0,0,0.0,0.0,0,43.106934,31.345781,144.07593,970.6011,27.711235,-491.1578,50.61564,345.539
5.078241,-5.739083,-6.0865736,0.017864581,0.055780888,-0.04192713,381.0,93.0,147.0,3726600000.0,NoFix,9,0,0.0,0.0,0,0.0,0.0,0,43.109398,31.346298,144.07863,970.6011,27.711235,-494.75717,46.938454,341.71024
5.0811214,-5.72853,-6.125997,0.0153125,0.036457896,-0.0025521219,377.0,98.0,149.0,3727911400.0,NoFix,9,0,0.0,0.0,0,0.0,0.0,0,43.109715,31.345552,144.07545,970.6011,27.711235,-487.61835,56.15875,345.57156
5.059355,-5.715321,-6.10061,0.0153125,0.07145786,-0.037552126,383.0,93.0,147.0,3729223000.0,NoFix,9,0,0.0,0.0,0,0.0,0.0,0,43.110504,31.345512,144.08049,970.6011,27.711235,-498.39996,47.007366,341.68478
5.105116,-5.709878,-6.133577,-0.0371875,0.018957853,-0.0025521219,375.0,93.0,146.0,3730534100.0,NoFix,9,0,0.0,0.0,0,0.0,0.0,0,43.108448,31.345877,144.07463,970.6011,27.711235,-483.84146,46.72933,339.8873
5.104933,-5.713403,-6.1060433,-0.0371875,0.018957853,-0.020052128,385.0,91.0,152.0,3731845600.0,NoFix,9,0,0.0,0.0,0,0.0,0.0,0,43.107655,31.34697,144.06801,970.6011,27.711235,-501.91025,43.34681,351.15097
5.0396113,-5.731072,-6.084119,0.0153125,0.018957853,-0.020052128,379.0,94.0,145.0,3733157000.0,NoFix,9,0,0.0,0.0,0,0.0,0.0,0,43.109695,31.34505,144.0734,970.6004,27.704742,-491.17426,48.73546,337.93948
5.1127915,-5.679321,-6.102541,-0.0196875,-0.016042113,-0.0025521219,383.0,94.0,140.0,3734468600.0,NoFix,9,0,0.0,0.0,0,0.0,0.0,0,43.107624,31.346567,144.09456,970.6004,27.704742,-498.52353,48.861412,328.39218
5.1213727,-5.7769427,-6.0971045,-0.0021874998,-0.033542156,-0.0025521219,381.0,97.0,151.0,3735779800.0,NoFix,9,0,0.0,0.0,0,0.0,0.0,0,43.110645,31.3464,144.09218,970.6004,27.704742,-494.8441,54.430656,349.31683
5.086666,-5.7459025,-6.0935106,-0.0196875,-0.033542156,-0.0025521219,381.0,91.0,140.0,3737091300.0,NoFix,9,0,0.0,0.0,0,0.0,0.0,0,43.11201,31.345291,144.10817,970.6004,27.704742,-494.77737,43.180473,328.4105
5.107889,-5.7408867,-6.0921454,0.0153125,-0.016042113,-0.0025521219,386.0,93.0,147.0,3738402800.0,NoFix,9,0,0.0,0.0,0,0.0,0.0,0,43.11399,31.34557,144.11734,970.6004,27.704742,-503.8642,47.110744,341.6466
5.049881,-5.6927037,-6.104379,-0.0371875,0.018957853,-0.020052128,384.0,86.0,141.0,3739714000.0,NoFix,9,0,0.0,0.0,0,0.0,0.0,0,43.112217,31.344471,144.12794,970.6004,27.704742,-500.05655,33.932842,330.25974
5.096588,-5.7388463,-6.1145644,-0.0371875,0.018957853,0.014947876,381.0,99.0,143.0,3741025500.0,NoFix,9,0,0.0,0.0,0,0.0,0.0,0,43.11252,31.344044,144.14679,970.6004,27.704742,-495.01483,58.153008,334.12735
5.092609,-5.6909857,-6.121622,-0.0371875,0.018957853,-0.0025521219,386.0,93.0,146.0,3742337000.0,NoFix,9,0,0.0,0.0,0,0.0,0.0,0,43.11007,31.34445,144.15654,970.6004,27.704742,-503.87692,47.108368,339.7473
5.1133323,-5.726957,-6.098425,-0.017135417,0.0,-0.0178646,386.0,90.0,145.0,3743648300.0,NoFix,9,0,0.0,0.0,0,0.0,0.0,0,43.110497,31.345564,144.16588,970.6004,27.704742,-503.78625,41.49396,337.84088
5.1016326,-5.7060947,-6.1062226,0.017135417,-0.018229127,0.016406238,380.0,93.0,142.0,3744959700.0,NoFix,9,0,0.0,0.0,0,0.0,0.0,0,43.11037,31.34566,144.17667,970.6004,27.704742,-492.9994,46.892117,332.22653
5.0836506,-5.732601,-6.118678,-0.034635417,0.032812595,0.016406238,377.0,93.0,151.0,3746271200.0,NoFix,11,0,0.0,0.0,0,0.0,0.0,0,43.110382,31.344812,144.1624,970.60095,27.709541,-487.42062,46.81012,349.35825
5.054841,-5.7781806,-6.1392407,0.0,-0.02078116,-0.00036459416,384.0,100.0,145.0,3747582700.0,NoFix,11,0,0.0,0.0,0,0.0,0.0,0,43.11173,31.340748,144.18129,970.60095,27.709541,-500.48804,60.1318,337.89008
5.11568,-5.723731,-6.133571,-0.034270838,-0.0036457777,0.016770817,380.0,98.0,147.0,3748894000.0,NoFix,11,0,0.0,0.0,0,0.0,0.0,0,43.11036,31.34082,144.18607,970.60095,27.709541,-493.10803,56.257374,341.73483
5.083781,-5.7448673,-6.101024,0.000364583,0.014218807,-0.0007291809,385.0,92.0,142.0,3750205400.0,NoFix,11,0,0.0,0.0,0,0.0,0.0,0,43.112106,31.340124,144.20398,970.60095,27.709541,-502.07196,45.19373,332.16052
5.083971,-5.7341046,-6.123819,0.0175,-0.020051956,-0.017135434,379.0,88.0,147.0,3751517000.0,NoFix,11,0,0.0,0.0,0,0.0,0.0,0,43.11223,31.338911,144.19493,970.60095,27.709541,-490.94205,37.516155,341.72382
5.128118,-5.7495413,-6.133129,0.0175,-0.037552,0.0003645718,386.0,90.0,153.0,3752828200.0,NoFix,11,0,0.0,0.0,0,0.0,0.0,0,43.112686,31.338829,144.185,970.59955,27.709541,-503.68445,41.512962,353.03513
5.1302767,-5.7357397,-6.1345034,-0.017135417,-0.0010937452,-0.016406268,377.0,87.0,149.0,3754139600.0,NoFix,11,0,0.0,0.0,0,0.0,0.0,0,43.1119,31.339813,144.16739,970.59955,27.709541,-487.23932,35.581314,345.54544
5.093691,-5.7058606,-6.099137,0.000729166,-0.0010937452,-0.032447934,382.0,93.0,150.0,3755451100.0,NoFix,11,0,0.0,0.0,0,0.0,0.0,0,43.11149,31.340612,144.1618,970.59955,27.709541,-496.5404,46.980034,347.39532
5.0797505,-5.715024,-6.139353,0.0175,-0.018229127,-0.013854183,378.0,92.0,147.0,3756762600.0,NoFix,11,0,0.0,0.0,0,0.0,0.0,0,43.110065,31.339226,144.1555,970.59955,27.709541,-489.25848,44.9644,341.74603
5.071128,-5.7051716,-6.122177,-0.03390625,-0.035364628,-0.013125017,376.0,88.0,143.0,3758073900.0,NoFix,11,0,0.0,0.0,0,0.0,0.0,0,43.10783,31.337744,144.15103,970.59955,27.709541,-485.52875,37.40328,334.16486
5.1123667,-5.757356,-6.104846,0.0018229168,-0.035000086,0.004739575,378.0,95.0,151.0,3759385300.0,NoFix,11,0,0.0,0.0,0,0.0,0.0,0,43.10972,31.33735,144.14066,970.59875,27.702484,-489.31094,50.58593,349.35028
5.0953884,-5.714785,-6.120197,0.0018229168,0.051041603,0.0043749884,377.0,93.0,148.0,3760696800.0,NoFix,11,0,0.0,0.0,0,0.0,0.0,0,43.109562,31.337875,144.13362,970.59875,27.702484,-487.4588,46.802994,343.6604
5.0677595,-5.710907,-6.124228,0.01859375,-0.0014584064,0.02114582,370.0,95.0,145.0,3762008000.0,NoFix,11,0,0.0,0.0,0,0.0,0.0,0,43.109066,31.336103,144.12456,970.59875,27.702484,-474.81607,50.296013,338.0564
5.088333,-5.73329,-6.1039267,0.0018229168,0.032083392,0.004010409,377.0,95.0,144.0,3763319600.0,NoFix,11,0,0.0,0.0,0,0.0,0.0,0,43.110355,31.336016,144.13028,970.59875,27.702484,-487.5786,50.534847,336.06805
5.078982,-5.7287893,-6.1244035,-0.032083333,-0.0029166937,0.020781241,375.0,101.0,145.0,3764631000.0,NoFix,11,0,0.0,0.0,0,0.0,0.0,0,43.109734,31.33444,144.137,970.59875,27.702484,-484.12985,61.69236,338.00702
5.138724,-5.7128763,-6.112101,0.0021875016,-0.019322872,-0.013854176,381.0,90.0,150.0,3765942500.0,NoFix,11,0,0.0,0.0,0,0.0,0.0,0,43.109146,31.336523,144.12677,970.5997,27.702484,-494.6156,41.333546,347.4009
5.116969,-5.7081385,-6.1615715,-0.014947915,-0.0007292032,0.020416662,383.0,93.0,147.0,3767253800.0,NoFix,11,0,0.0,0.0,0,0.0,0.0,0,43.106236,31.336401,144.12965,970.5997,27.702484,-498.39996,47.007366,341.68478
5.112074,-5.745218,-6.1370482,-0.04958333,0.0674479,0.002916664,382.0,91.0,139.0,3768565200.0,NoFix,11,0,0.0,0.0,0,0.0,0.0,0,43.10593,31.337019,144.1498,970.5997,27.702484,-496.6115,43.21256,326.4985
5.0510955,-5.748828,-6.1168895,0.0029166676,0.0674479,0.020416662,377.0,95.0,152.0,3769876700.0,NoFix,11,0,0.0,0.0,0,0.0,0.0,0,43.10786,31.334846,144.13683,970.5997,27.702484,-487.4768,50.55385,351.2623
5.0453553,-5.719369,-6.0898943,-0.014583332,0.049947858,-0.014583342,381.0,87.0,144.0,3771188000.0,NoFix,11,0,0.0,0.0,0,0.0,0.0,0,43.108803,31.333788,144.13887,970.5997,27.702484,-494.5886,35.707268,335.99814
5.0613637,-5.7268677,-6.1230006,-0.032083333,-0.020052075,-0.04958334,387.0,91.0,144.0,3772499500.0,NoFix,11,0,0.0,0.0,0,0.0,0.0,0,43.107433,31.332136,144.15198,970.5993,27.6988,-505.65488,43.396725,335.93127
5.1035924,-5.712367,-6.149905,0.037916668,-0.05505216,-0.014583342,387.0,91.0,148.0,3773811000.0,NoFix,11,0,0.0,0.0,0,0.0,0.0,0,43.105537,31.331299,144.15482,970.5993,27.6988,-505.60397,43.406223,343.52838
5.11153,-5.697689,-6.138223,0.037916668,-0.05505216,0.002916664,387.0,94.0,150.0,3775122200.0,NoFix,11,0,0.0,0.0,0,0.0,0.0,0,43.103634,31.331152,144.15672,970.5993,27.6988,-505.6819,49.022995,347.33405
5.088426,-5.73179,-6.139376,0.0029166676,-0.05505216,0.002916664,378.0,95.0,147.0,3776433700.0,NoFix,11,0,0.0,0.0,0,0.0,0.0,0,43.102642,31.329195,144.1543,970.5993,27.6988,-489.36185,50.57643,341.75317
5.0932612,-5.7475867,-6.093027,0.020416668,-0.03755212,0.020416662,385.0,99.0,142.0,3777745200.0,NoFix,11,0,0.0,0.0,0,0.0,0.0,0,43.105095,31.328176,144.18123,970.5998,27.6988,-502.31317,58.288464,332.17715
5.078427,-5.718104,-6.1140943,-0.032083333,-0.0025521517,0.020416662,384.0,93.0,145.0,3779056600.0,NoFix,11,0,0.0,0.0,0,0.0,0.0,0,43.10447,31.327087,144.19121,970.5998,27.6988,-500.24683,47.037075,337.87347
5.0722737,-5.704709,-6.0940404,-0.014583332,0.014947891,0.002916664,379.0,92.0,141.0,3780368000.0,NoFix,12,0,0.0,0.0,0,0.0,0.0,0,43.104435,31.326876,144.20218,970.5998,27.6988,-491.15628,44.984608,330.33762
5.1064744,-5.699925,-6.1118054,0.0029166676,-0.03755212,0.020416662,377.0,97.0,142.0,3781679400.0,NoFix,12,0,0.0,0.0,0,0.0,0.0,0,43.10343,31.327057,144.21284,970.5998,27.6988,-487.67297,54.271446,332.2742
5.088768,-5.6943994,-6.122729,-0.014583332,-0.0025521517,0.020416662,377.0,103.0,144.0,3782990800.0,NoFix,12,0,0.0,0.0,0,0.0,0.0,0,43.101635,31.326757,144.22627,970.5998,27.6988,-487.85428,65.50025,336.08704
5.0599337,-5.6893783,-6.1134768,0.0029166676,-0.0025521517,0.020416662,383.0,94.0,144.0,3784302000.0,NoFix,12,0,0.0,0.0,0,0.0,0.0,0,43.100365,31.325384,144.23729,970.5998,27.6988,-498.4726,48.870914,335.98932
5.04251,-5.7176886,-6.057715,-0.032083333,0.0674479,0.002916664,382.0,94.0,143.0,3785613600.0,NoFix,12,0,0.0,0.0,0,0.0,0.0,0,43.102707,31.325008,144.25192,970.5998,27.6988,-496.66394,48.834084,334.10275
5.0681486,-5.743333,-6.112003,0.0029166676,0.014947891,-0.014583342,381.0,91.0,143.0,3786925000.0,NoFix,12,0,0.0,0.0,0,0.0,0.0,0,43.103905,31.32371,144.25957,970.5998,27.6988,-494.73917,43.1876,334.10834
5.128007,-5.7123413,-6.116927,0.0029166676,-0.03755212,0.002916664,388.0,92.0,142.0,3788236500.0,NoFix,12,0,0.0,0.0,0,0.0,0.0,0,43.10313,31.324818,144.27927,970.5998,27.6988,-507.5362,45.2971,332.12234
5.1143355,-5.7035136,-6.120264,-0.014583332,0.014947891,0.020416662,381.0,95.0,145.0,3789547800.0,NoFix,12,0,0.0,0.0,0,0.0,0.0,0,43.102024,31.325876,144.28613,970.5998,27.6988,-494.85153,50.675053,337.9164
5.0855665,-5.699783,-6.071481,0.020416668,0.014947891,0.020416662,381.0,87.0,145.0,3790859300.0,NoFix,12,0,0.0,0.0,0,0.0,0.0,0,43.1036,31.32666,144.28452,970.5998,27.6988,-494.57587,35.70964,337.8974
5.0779924,-5.735439,-6.0967593,0.025520837,-2.3841858e-7,0.017864577,386.0,91.0,141.0,3792170800.0,NoFix,12,0,0.0,0.0,0,0.0,0.0,0,43.10569,31.32566,144.30414,970.59906,27.692299,-503.87167,43.355137,330.24615
5.0661244,-5.722393,-6.09958,0.041562505,0.034635305,-0.01677084,387.0,97.0,142.0,3793482000.0,NoFix,12,0,0.0,0.0,0,0.0,0.0,0,43.107296,31.325226,144.32964,970.59906,27.692299,-505.88705,54.616024,332.14694
